timestamp_ms,acc_x,acc_y,acc_z,gyro_x,gyro_y,gyro_z
113,0.49,8.05,90.16,-4077.5,29190.0,10377.5
143,9.64,10.49,147.74,-5932.5,6282.5,9835.0
172,23.67,10.49,204.59,-6440.0,8347.5,4532.5
202,37.7,13.66,262.54,-2747.5,23660.0,2310.0
231,55.51,19.64,318.18,647.5,12477.5,4532.5
261,80.15,21.47,368.81,6282.5,2607.5,2047.5
290,108.82,19.4,414.31,9555.0,-7612.5,-10990.0
319,126.88,18.91,455.3,7507.5,-6352.5,-23852.5
348,122.24,21.23,491.54,4637.5,-19740.0,-29102.5
377,93.21,26.96,522.53,-1032.5,-34177.5,-30415.0
406,43.19,34.16,553.03,-2817.5,-20807.5,-17937.5
436,-15.13,38.67,583.77,4375.0,-12057.5,1540.0
465,-69.3,40.5,609.63,15277.5,-20212.5,16765.0
494,-113.46,42.58,628.79,14420.0,-2100.0,25077.5
523,-146.52,45.14,645.75,12162.5,17010.0,31500.0
552,-164.46,50.26,660.51,6702.5,12232.5,33827.5
581,-159.33,58.8,672.22,-2765.0,10972.5,32900.0
610,-132.0,67.22,687.35,-2450.0,39620.0,36435.0
639,-89.3,71.37,712.97,-5827.5,47530.0,36207.5
668,-38.19,64.54,749.32,-11690.0,22015.0,25900.0
697,13.3,47.34,784.34,-560.0,-1435.0,1172.5
726,54.41,34.04,809.47,8522.5,3377.5,-22802.5
756,76.62,28.79,829.11,9117.5,10972.5,-24185.0
785,78.81,28.67,842.53,11637.5,-14000.0,-26827.5
814,58.19,35.87,850.83,10815.0,-21787.5,-27825.0
843,19.03,53.56,854.98,-2870.0,9922.5,-7052.5
872,-22.94,70.39,855.95,-7857.5,-6947.5,-6335.0
901,-64.42,78.81,857.9,-8907.5,-15277.5,-9782.5
930,-101.75,88.69,859.37,12810.0,-71312.5,20055.0
959,-122.0,101.5,863.27,42297.5,-61005.0,41440.0
988,-137.13,113.7,863.52,38535.0,16590.0,35157.5
1017,-155.55,126.39,863.27,-4585.0,14892.5,35840.0
1046,-162.87,136.15,871.08,-15540.0,-13195.0,40827.5
1075,-152.62,137.86,883.77,-1785.0,-1172.5,41895.0
1104,-128.34,131.39,895.48,-1032.5,17517.5,38990.0
1132,-95.4,119.93,907.31,-15207.5,15680.0,40407.5
1161,-57.71,108.46,927.2,-9625.0,36907.5,44205.0
1190,-14.64,99.06,939.64,4690.0,74445.0,39112.5
1219,34.65,90.04,945.5,-5180.0,64645.0,17937.5
1248,89.43,73.08,964.78,-22207.5,53427.5,-16065.0
1277,126.39,52.22,991.62,23712.5,-11322.5,-78102.5
1306,126.39,36.84,1000.89,40740.0,-19862.5,-99137.5
1335,102.24,30.26,989.54,32777.5,-17307.5,-101797.5
1364,51.12,34.4,971.97,24482.5,-1855.0,-93275.0
1394,-32.7,46.73,953.19,19092.5,-2275.0,-60217.5
1423,-131.76,61.73,935.62,13597.5,6177.5,-14210.0
1453,-224.85,74.54,914.76,4970.0,18970.0,30432.5
1482,-297.56,79.42,888.77,-6002.5,8837.5,69282.5
1511,-341.84,73.08,863.76,-22207.5,-14910.0,97947.5
1540,-358.92,58.56,850.58,-30100.0,-30065.0,108167.5
1568,-342.82,34.89,855.34,-36085.0,-30292.5,112420.0
1597,-268.64,5.98,884.99,-35525.0,2765.0,104510.0
1626,-134.57,-19.76,934.52,-24430.0,28245.0,57295.0
1655,13.66,-41.97,985.03,-7892.5,20807.5,-17780.0
1684,122.98,-65.39,1024.8,20195.0,-4200.0,-89582.5
1713,173.36,-92.72,1041.76,50330.0,-21472.5,-133367.5
1742,163.72,-118.1,1029.44,47845.0,-24902.5,-155645.0
1771,84.42,-133.96,1004.18,20440.0,-50697.5,-149905.0
1800,-52.95,-134.2,983.81,-2222.5,-79152.5,-88287.5
1828,-192.27,-120.05,979.9,-14612.5,-38255.0,-262.5
1857,-292.68,-105.04,987.22,2625.0,28682.5,64802.5
1886,-353.31,-104.43,982.34,7105.0,44835.0,112822.5
1915,-376.74,-121.02,971.61,-8715.0,25427.5,136535.0
1943,-356.73,-148.11,972.71,-12145.0,23957.5,148155.0
1972,-272.55,-177.02,990.88,-18532.5,48387.5,130025.0
2000,-132.98,-198.01,1022.73,-12740.0,28192.5,66990.0
2029,16.23,-208.86,1061.03,577.5,5232.5,-13457.5
2058,131.03,-218.38,1093.49,15750.0,-5845.0,-93520.0
2087,187.51,-234.97,1101.66,34720.0,-13510.0,-145582.5
2116,180.32,-252.3,1081.16,38692.5,-34807.5,-168017.5
2144,88.82,-259.13,1053.59,10027.5,-79327.5,-159775.0
2173,-80.03,-247.54,1049.2,-6300.0,-95252.5,-71960.0
2201,-241.44,-225.82,1064.08,8172.5,-27142.5,35892.5
2230,-335.62,-213.01,1066.77,21420.0,50645.0,96355.0
2258,-371.37,-216.92,1050.42,12495.0,61250.0,132632.5
2287,-354.65,-234.97,1034.8,-12162.5,40232.5,147192.5
2315,-288.41,-257.91,1040.78,-25567.5,20387.5,141697.5
2344,-162.38,-274.5,1079.21,-8960.0,15050.0,100327.5
2373,-2.2,-276.94,1127.4,48615.0,18410.0,15837.5
2402,133.1,-269.5,1145.34,59587.5,7945.0,-55230.0
2431,219.11,-264.5,1134.48,28822.5,-27090.0,-110775.0
2460,244.73,-267.42,1118.5,8697.5,-50382.5,-145337.5
2489,198.86,-272.79,1109.35,-6965.0,-61775.0,-155277.5
2517,72.22,-268.28,1107.39,-14857.5,-84507.5,-120347.5
2546,-92.35,-250.1,1113.86,-9187.5,-55510.0,-27982.5
2574,-221.43,-229.36,1117.52,14595.0,38482.5,50137.5
2603,-290.97,-219.23,1094.83,13667.5,81882.5,99697.5
2631,-308.17,-223.02,1060.79,-21315.0,52972.5,126962.5
2660,-273.4,-234.97,1052.86,-41160.0,27422.5,129360.0
2688,-184.34,-244.24,1073.84,-30870.0,30730.0,99540.0
2717,-50.75,-241.8,1107.03,-12075.0,15820.0,48842.5
2746,92.35,-229.6,1140.21,542.5,1960.0,-22015.0
2776,198.37,-219.36,1159.37,13755.0,-18970.0,-86660.0
2805,247.05,-221.31,1157.05,20212.5,-29785.0,-127172.5
2834,236.31,-231.56,1141.19,8312.5,-30467.5,-149660.0
2863,153.11,-237.66,1125.21,-2537.5,-56297.5,-139282.5
2891,12.2,-232.41,1116.3,-8120.0,-73220.0,-72712.5
2920,-130.42,-217.89,1120.94,-4375.0,-17832.5,7892.5
2948,-233.02,-205.2,1121.3,16940.0,44537.5,72712.5
2977,-289.75,-205.57,1100.07,10885.0,49315.0,119385.0
3005,-304.27,-221.8,1081.65,-15872.5,32462.5,148487.5
3034,-261.45,-246.32,1086.29,-23152.5,45657.5,150745.0
3062,-154.45,-264.98,1108.37,-14280.0,46585.0,105962.5
3091,-11.47,-269.13,1138.75,507.5,22540.0,34125.0
3120,125.78,-263.15,1165.83,16922.5,3430.0,-37555.0
3149,223.99,-259.98,1177.06,29925.0,-12285.0,-100642.5
3178,267.06,-267.67,1165.47,34772.5,-25760.0,-140927.5
3206,251.93,-278.89,1143.51,12442.5,-29907.5,-157045.0
3235,159.94,-283.41,1126.3,1155.0,-53882.5,-153790.0
3263,-0.12,-276.7,1120.45,-4025.0,-67777.5,-69807.5
3292,-150.55,-262.54,1127.04,6807.5,-5040.0,25480.0
3321,-248.51,-251.56,1119.96,23467.5,46935.0,76142.5
3350,-305.12,-250.83,1088.24,9117.5,44765.0,117355.0
3379,-321.47,-261.45,1058.11,-17272.5,29855.0,142205.0
3408,-285.85,-277.92,1052.86,-34020.0,32077.5,146440.0
3436,-192.52,-289.87,1073.84,-32637.5,35192.5,114065.0
3465,-45.02,-290.6,1113.13,-12565.0,17797.5,56892.5
3494,114.8,-286.82,1151.07,18235.0,5040.0,-32585.0
3523,222.28,-290.85,1164.61,30835.0,-28735.0,-108412.5
3552,260.59,-303.54,1158.02,18305.0,-40652.5,-145880.0
3580,239.36,-317.08,1149.0,7140.0,-26967.5,-159687.5
3609,154.82,-323.18,1137.04,10080.0,-40652.5,-152932.5
3637,6.59,-316.22,1124.11,-1347.5,-73902.5,-85085.0
3666,-145.42,-298.66,1127.28,-8067.5,-29225.0,13632.5
3694,-245.95,-282.06,1131.43,18970.0,32340.0,72240.0
3723,-298.66,-275.96,1110.81,17290.0,53410.0,112927.5
3751,-305.98,-280.11,1087.51,-15365.0,57067.5,133000.0
3780,-269.13,-286.94,1083.73,-26110.0,54267.5,121905.0
3808,-195.44,-288.77,1097.15,-21525.0,33057.5,92767.5
3837,-87.72,-281.33,1122.03,-3430.0,22172.5,55860.0
3866,40.87,-265.84,1148.02,7315.0,15977.5,-6142.5
3896,145.42,-251.69,1165.95,11077.5,-18620.0,-70157.5
3925,199.1,-249.37,1174.01,15242.5,-43137.5,-108185.0
3953,207.64,-256.57,1173.15,15295.0,-37905.0,-131355.0
3982,170.19,-264.13,1164.37,12040.0,-33967.5,-136185.0
4010,77.59,-265.47,1147.78,7822.5,-58747.5,-116655.0
4039,-58.93,-256.69,1133.87,-5582.5,-71732.5,-49525.0
4067,-189.71,-241.44,1131.79,-560.0,-10220.0,28875.0
4096,-276.7,-232.17,1120.94,16572.5,38850.0,89495.0
4125,-316.96,-235.46,1095.56,-2992.5,38395.0,123742.5
4154,-318.66,-248.64,1079.46,-22995.0,25375.0,132562.5
4182,-276.57,-266.2,1082.51,-20667.5,35682.5,134855.0
4211,-170.92,-278.65,1101.78,-19005.0,49717.5,102900.0
4240,-20.86,-276.7,1134.84,-9800.0,28857.5,31255.0
4268,117.73,-266.69,1173.15,8540.0,1137.5,-45972.5
4297,212.77,-265.47,1193.4,40880.0,-17307.5,-101185.0
4325,262.18,-280.36,1183.89,46865.0,-32165.0,-138250.0
4354,257.54,-300.85,1162.9,19897.5,-36400.0,-164552.5
4382,161.16,-317.69,1143.14,5547.5,-71767.5,-161385.0
4411,-20.37,-322.57,1134.84,-7210.0,-99925.0,-70420.0
4439,-195.32,-314.64,1146.43,-2082.5,-3010.0,38325.0
4468,-301.22,-309.88,1146.56,22435.0,74130.0,107992.5
4497,-344.89,-319.76,1117.76,4690.0,74445.0,147017.5
4526,-337.94,-341.36,1093.73,-32130.0,41685.0,163520.0
4555,-272.3,-364.05,1098.73,-38675.0,27825.0,147910.0
4583,-145.42,-374.91,1129.84,-23765.0,22470.0,98052.5
4612,29.52,-373.32,1173.76,1190.0,36855.0,22977.5
4641,193.0,-371.37,1212.07,25287.5,14017.5,-77630.0
4670,278.89,-384.18,1227.93,46532.5,-38990.0,-146282.5
4698,285.11,-408.46,1214.39,47162.5,-42245.0,-170747.5
4727,227.9,-427.49,1186.08,19565.0,-32602.5,-165637.5
4755,98.58,-433.1,1161.93,-4655.0,-71312.5,-130725.0
4784,-88.21,-423.46,1156.32,-15960.0,-92557.5,-40232.5
4812,-252.54,-406.38,1167.54,5162.5,-2642.5,62772.5
4841,-337.45,-397.6,1160.22,31482.5,74095.0,122815.0
4870,-362.34,-404.31,1123.5,7630.0,63962.5,144165.0
4899,-343.31,-422.36,1098.85,-30065.0,32900.0,161507.5
4928,-256.93,-441.4,1111.66,-48055.0,54355.0,145617.5
4956,-108.34,-447.98,1153.88,-38045.0,37117.5,79660.0
4985,56.0,-440.42,1206.7,-3815.0,9625.0,-4165.0
5014,191.78,-431.88,1244.28,29347.5,-9327.5,-84927.5
5043,275.23,-439.69,1250.01,60795.0,-22225.0,-146457.5
5071,284.75,-468.97,1222.44,57085.0,-39305.0,-193060.0
5100,176.05,-494.34,1181.2,18287.5,-105962.5,-181212.5
5128,-17.57,-490.44,1165.59,-21350.0,-105210.0,-60637.5
5157,-183.73,-467.63,1175.47,-12057.5,13300.0,43102.5
5186,-279.14,-448.96,1169.49,2590.0,74532.5,96110.0
5215,-328.79,-444.93,1142.29,-14927.5,64155.0,132860.0
5244,-339.89,-456.4,1126.43,-45482.5,40932.5,154927.5
5273,-292.56,-474.95,1139.48,-44327.5,44450.0,152337.5
5302,-179.71,-486.29,1170.96,-36977.5,45080.0,121152.5
5330,-32.94,-493.12,1220.85,-58765.0,31255.0,36137.5
5359,91.5,-499.71,1275.51,22890.0,122.5,-53865.0
5388,158.11,-503.98,1294.18,79712.5,-28910.0,-113190.0
5417,172.51,-506.54,1268.56,85015.0,-38990.0,-140857.5
5445,137.01,-502.4,1220.49,50715.0,-48685.0,-151410.0
5474,34.16,-488.0,1176.57,-3780.0,-81515.0,-121152.5
5502,-112.24,-462.26,1164.25,-37380.0,-88305.0,-41335.0
5531,-246.2,-434.44,1178.89,6195.0,-18357.5,38552.5
5560,-332.69,-419.92,1174.37,39672.5,56577.5,103512.5
5589,-364.78,-423.83,1137.16,6790.0,59220.0,137830.0
5618,-347.46,-439.2,1111.91,-40215.0,27422.5,146055.0
5646,-267.06,-455.91,1126.79,-47372.5,36925.0,138950.0
5675,-117.12,-465.31,1167.91,-28157.5,42525.0,78190.0
5703,52.22,-466.28,1212.19,9362.5,12460.0,-22470.0
5732,175.07,-468.72,1237.08,55265.0,-12862.5,-107152.5
5760,227.9,-481.29,1217.68,75967.5,-23887.5,-153685.0
5789,210.45,-496.17,1169.13,20352.5,-37625.0,-163310.0
5817,114.68,-498.49,1140.94,-35857.5,-68390.0,-139160.0
5846,-48.8,-482.88,1156.07,-36750.0,-79940.0,-62475.0
5874,-215.82,-457.38,1193.65,19232.5,-12915.0,38850.0
5903,-319.4,-438.35,1195.97,61635.0,92470.0,107030.0
5932,-354.53,-432.0,1147.17,20195.0,82180.0,137567.5
5960,-345.02,-435.54,1102.76,-27965.0,17220.0,144042.5
5989,-277.55,-447.01,1100.68,-43750.0,27755.0,141295.0
6017,-141.76,-457.99,1131.67,-41265.0,43697.5,87832.5
6046,17.57,-463.36,1174.86,-19372.5,15015.0,2975.0
6075,138.59,-469.21,1210.36,9065.0,-8155.0,-80062.5
6104,196.91,-482.51,1220.24,41597.5,-14875.0,-125982.5
6132,199.23,-496.3,1204.38,42315.0,-70.0,-151795.0
6161,135.18,-496.54,1172.18,32462.5,-28542.5,-154087.5
6189,2.81,-479.22,1138.63,402.5,-95462.5,-109060.0
6218,-160.06,-450.42,1131.55,-19705.0,-104090.0,-21665.0
6246,-291.58,-422.61,1147.41,12162.5,10377.5,67882.5
6274,-354.41,-406.5,1143.51,29242.5,108955.0,117845.0
6303,-363.44,-402.72,1113.49,-2747.5,76300.0,127522.5
6331,-335.74,-407.72,1094.95,-31972.5,6422.5,128747.5
6360,-260.59,-417.73,1107.27,-39270.0,31115.0,112997.5
6388,-140.67,-423.46,1142.29,-20160.0,41037.5,62265.0
6417,-6.71,-423.22,1181.2,7735.0,23047.5,-7367.5
6446,101.75,-425.29,1206.09,25042.5,-14122.5,-77105.0
6475,158.11,-435.66,1209.51,32305.0,-39217.5,-122762.5
6503,157.5,-448.72,1198.04,25567.5,-37502.5,-148487.5
6532,85.89,-452.01,1180.11,19197.5,-64260.0,-149835.0
6561,-58.8,-438.47,1163.03,4812.5,-96740.0,-96722.5
6589,-224.24,-412.12,1161.81,875.0,-58905.0,2852.5
6618,-343.19,-389.18,1162.05,22435.0,51502.5,85890.0
6646,-396.5,-381.62,1137.53,15120.0,89162.5,130305.0
6675,-402.11,-387.84,1106.78,-19950.0,29172.5,145442.5
6703,-368.81,-405.04,1103.98,-26442.5,-3202.5,142817.5
6732,-279.62,-426.76,1127.89,-9327.5,32165.0,117827.5
6760,-129.56,-438.71,1160.95,1505.0,38937.5,57785.0
6789,38.55,-438.47,1194.87,12652.5,7595.0,-24220.0
6818,168.12,-438.83,1213.53,29137.5,-24622.5,-103582.5
6847,229.24,-449.2,1200.24,35875.0,-48685.0,-151900.0
6876,216.31,-463.23,1173.88,4305.0,-37432.5,-165392.5
6904,120.05,-466.77,1161.56,-15067.5,-42735.0,-150447.5
6933,-48.19,-451.89,1169.13,-12022.5,-80412.5,-79187.5
6961,-219.6,-424.32,1186.33,16135.0,-16292.5,23030.0
6990,-326.23,-402.23,1177.67,43837.5,70840.0,97895.0
7018,-363.44,-394.91,1130.82,11900.0,77087.5,127802.5
7047,-362.83,-400.16,1093.0,-30625.0,19477.5,131845.0
7075,-312.32,-415.29,1098.12,-32760.0,23292.5,140507.5
7104,-179.34,-430.29,1136.67,-29137.5,57820.0,96250.0
7133,-5.37,-435.66,1190.11,612.5,24447.5,4707.5
7163,134.2,-436.64,1229.76,33250.0,-14542.5,-81550.0
7192,207.64,-445.67,1229.52,44450.0,-38115.0,-131897.5
7221,215.82,-460.18,1202.19,22767.5,-35997.5,-153230.0
7250,147.5,-464.58,1174.98,2450.0,-55895.0,-153632.5
7278,-6.34,-448.84,1164.49,-15470.0,-103722.5,-98227.5
7307,-184.95,-417.85,1177.91,-1347.5,-48177.5,7612.5
7335,-305.24,-390.16,1176.93,29540.0,76387.5,83877.5
7364,-356.73,-379.3,1137.41,5302.5,80937.5,124092.5
7392,-362.22,-385.28,1104.34,-32392.5,28385.0,139772.5
7421,-313.3,-402.48,1112.76,-37572.5,37940.0,142117.5
7449,-195.2,-419.56,1150.95,-28385.0,46497.5,98997.5
7478,-40.14,-427.24,1197.8,-2642.5,15067.5,18532.5
7507,93.82,-427.98,1230.0,21157.5,-8452.5,-60007.5
7536,175.19,-431.39,1230.37,34667.5,-28945.0,-112192.5
7565,201.06,-440.18,1202.43,31255.0,-26722.5,-139982.5
7593,162.14,-445.79,1162.9,12442.5,-37100.0,-142590.0
7622,49.04,-438.47,1139.72,-20615.0,-77910.0,-107485.0
7650,-109.56,-416.02,1155.46,-27370.0,-69037.5,-34335.0
7679,-245.83,-387.72,1182.18,14210.0,14490.0,40617.5
7707,-323.3,-367.59,1168.03,29540.0,53462.5,89827.5
7736,-350.75,-361.85,1127.89,-2520.0,29295.0,119455.0
7764,-326.23,-366.85,1108.98,-19512.5,31360.0,132352.5
7793,-230.09,-374.42,1120.69,-19967.5,55387.5,111492.5
7821,-74.54,-376.74,1153.75,-8190.0,43645.0,44485.0
7850,75.88,-378.44,1189.26,15435.0,5967.5,-38850.0
7879,163.72,-386.74,1209.87,27212.5,-24605.0,-96197.5
7908,187.15,-399.31,1211.46,32952.5,-21700.0,-120347.5
7937,158.11,-408.58,1193.16,30030.0,-23415.0,-127487.5
7965,67.1,-405.89,1166.44,10535.0,-41230.0,-112630.0
7994,-85.4,-384.3,1149.0,-5215.0,-57610.0,-57120.0
8022,-238.14,-351.24,1142.41,12057.5,-29610.0,26232.5
8051,-330.38,-326.72,1117.64,25480.0,38027.5,84770.0
8079,-361.73,-318.05,1075.31,-6405.0,33390.0,117775.0
8108,-337.21,-321.35,1057.13,-31815.0,19022.5,129570.0
8136,-251.2,-329.52,1076.89,-27142.5,31220.0,111737.5
8165,-111.02,-334.89,1117.4,-8592.5,21227.5,57137.5
8194,40.26,-336.23,1156.07,12547.5,8120.0,-21490.0
8223,148.23,-338.67,1174.01,28577.5,-21000.0,-85750.0
8252,195.32,-346.36,1165.95,26512.5,-37450.0,-119455.0
8281,186.54,-355.02,1144.24,11200.0,-27860.0,-133455.0
8310,110.17,-354.29,1126.06,-8400.0,-56332.5,-122832.5
8338,-29.4,-335.74,1125.57,-18515.0,-70630.0,-65415.0
8367,-174.7,-305.98,1138.75,5582.5,-11690.0,16502.5
8395,-273.52,-282.31,1134.11,25112.5,54320.0,78102.5
8424,-321.59,-274.38,1107.76,7000.0,57732.5,115027.5
8452,-325.98,-280.97,1091.17,-10430.0,40652.5,135677.5
8481,-270.23,-295.73,1098.49,-11707.5,47250.0,136640.0
8509,-143.96,-307.68,1123.13,-5057.5,39077.5,86555.0
8538,18.42,-313.05,1152.9,2835.0,3745.0,4200.0
8567,149.57,-319.03,1173.4,14052.5,-29697.5,-73920.0
8596,212.16,-329.52,1172.66,14420.0,-39690.0,-117250.0
8625,212.65,-338.18,1158.15,-1137.5,-36942.5,-137515.0
8653,139.32,-336.48,1148.51,-11480.0,-58887.5,-135012.5
8682,-5.49,-318.79,1155.34,-10727.5,-74637.5,-71837.5
8710,-156.89,-291.82,1167.05,11742.5,-5057.5,14945.0
8739,-258.4,-270.84,1155.58,25585.0,53725.0,78522.5
8767,-307.68,-265.23,1122.4,6037.5,53497.5,114117.5
8796,-314.15,-273.65,1101.66,-17832.5,38080.0,131792.5
8824,-270.84,-287.92,1105.69,-16940.0,37502.5,128992.5
8853,-175.92,-298.05,1119.23,-7857.5,15855.0,95672.5
8882,-38.92,-302.8,1135.33,-4252.5,1312.5,40127.5
8911,105.9,-308.05,1154.36,2782.5,35.0,-30275.0
8940,208.99,-318.66,1168.88,12057.5,-16835.0,-91070.0
8969,250.71,-334.28,1169.61,14052.5,-29820.0,-127680.0
8998,230.95,-345.75,1158.76,5985.0,-23765.0,-142100.0
9026,132.25,-341.36,1149.48,-997.5,-48282.5,-127015.0
9055,-24.28,-316.71,1150.83,1190.0,-55090.0,-50347.5
9083,-165.8,-283.04,1148.02,16642.5,6685.0,28962.5
9112,-254.98,-256.81,1122.16,18375.0,41772.5,86520.0
9140,-292.56,-246.56,1082.14,-4165.0,39025.0,119630.0
9169,-292.68,-251.81,1057.01,-29522.5,19565.0,131967.5
9197,-252.78,-269.01,1063.35,-26880.0,26722.5,135012.5
9226,-152.26,-292.19,1093.97,-19775.0,16572.5,97965.0
9255,-5.12,-313.17,1135.58,-4497.5,-1155.0,29872.5
9284,134.2,-329.52,1165.47,21507.5,-2415.0,-45850.0
9313,224.97,-345.26,1164.98,30257.5,-18620.0,-101220.0
9341,257.42,-360.39,1141.92,18375.0,-23870.0,-130795.0
9370,234.73,-365.88,1118.62,70.0,-16520.0,-136202.5
9398,144.57,-356.0,1107.76,-4795.0,-32340.0,-130952.5
9427,-12.32,-329.52,1111.91,-3395.0,-63490.0,-65975.0
9455,-165.43,-295.48,1123.13,14892.5,6247.5,29890.0
9484,-258.27,-270.35,1110.2,27352.5,67410.0,87885.0
9513,-295.0,-261.69,1071.89,-5215.0,47547.5,120365.0
9542,-275.48,-269.13,1054.81,-36785.0,21927.5,132370.0
9570,-187.88,-286.21,1079.58,-30502.5,29557.5,115097.5
9599,-44.9,-302.8,1120.45,-7980.0,24045.0,50417.5
9628,98.82,-313.66,1152.41,12320.0,-1382.5,-29785.0
9657,195.2,-321.1,1158.27,31657.5,-23415.0,-90807.5
9686,229.97,-326.47,1134.6,22365.0,-35157.5,-125177.5
9714,203.74,-325.74,1106.54,-2852.5,-24622.5,-133770.0
9743,104.19,-312.81,1091.41,-6457.5,-40652.5,-116690.0
9771,-45.14,-288.77,1092.75,-6387.5,-52780.0,-35577.5
9800,-172.02,-264.98,1101.05,7017.5,20597.5,44555.0
9829,-243.51,-249.86,1094.1,13527.5,53357.5,89460.0
9858,-270.72,-246.56,1077.26,-1890.0,27527.5,117390.0
9886,-245.46,-252.54,1080.19,-11445.0,24500.0,119525.0
9915,-172.39,-258.88,1099.71,1400.0,18130.0,88270.0
9944,-61.24,-262.67,1118.98,4760.0,17745.0,55072.5
9973,77.84,-265.96,1137.89,11725.0,19757.5,-11602.5
10002,192.64,-269.25,1146.56,24710.0,-13912.5,-82897.5
10030,246.93,-272.3,1128.87,24132.5,-34755.0,-127925.0
10059,235.34,-275.35,1094.95,-6737.5,-34720.0,-142607.5
10087,152.38,-272.79,1077.87,-25532.5,-32900.0,-125930.0
10116,11.47,-257.91,1089.22,-21332.5,-52272.5,-62142.5
10144,-136.27,-239.24,1108.49,4095.0,-5127.5,21717.5
10173,-239.61,-227.16,1103.73,17465.0,44607.5,86922.5
10201,-287.19,-225.21,1072.99,1627.5,41615.0,118125.0
10230,-292.8,-232.78,1047.49,-17290.0,19950.0,131827.5
10258,-233.75,-247.78,1045.54,-17640.0,26127.5,136815.0
10287,-91.74,-263.52,1062.86,-24972.5,12512.5,80500.0
10316,79.18,-276.21,1097.88,-18970.0,-11900.0,-4340.0
10344,209.47,-291.82,1139.48,13387.5,-15522.5,-84157.5
10373,268.16,-313.42,1161.44,39217.5,-19775.0,-135415.0
10401,258.88,-333.55,1154.85,41632.5,-1890.0,-159670.0
10430,173.12,-337.45,1119.47,32900.0,-36120.0,-155347.5
10458,18.67,-320.74,1078.24,-9170.0,-69912.5,-81777.5
10487,-146.16,-294.63,1068.23,-26950.0,-9835.0,17920.0
10515,-263.76,-276.82,1078.97,-1470.0,29382.5,91367.5
10544,-317.44,-277.92,1076.77,12932.5,39445.0,125510.0
10572,-314.64,-292.07,1067.87,-5757.5,34002.5,136202.5
10601,-247.78,-307.44,1076.77,-11042.5,32585.0,129377.5
10629,-110.41,-315.25,1097.63,-7105.0,17535.0,79432.5
10658,65.39,-314.52,1119.23,437.5,2555.0,-3465.0
10687,215.45,-316.22,1131.67,21227.5,-6370.0,-91787.5
10715,288.41,-331.84,1125.82,22312.5,-17552.5,-150482.5
10744,270.96,-357.34,1105.69,10587.5,-14700.0,-179007.5
10772,147.5,-371.12,1080.55,-8260.0,-68005.0,-157080.0
10801,-40.63,-363.07,1084.58,-31762.5,-72537.5,-45920.0
10829,-199.23,-344.77,1117.03,-4025.0,7420.0,47897.5
10858,-294.14,-333.06,1132.65,28735.0,27247.5,98542.5
10886,-335.99,-335.01,1120.57,26530.0,32305.0,130427.5
10915,-319.64,-346.72,1105.32,6300.0,46147.5,149275.0
10944,-233.02,-357.83,1101.78,-2975.0,43505.0,129255.0
10973,-94.18,-361.61,1107.03,-9677.5,6580.0,74305.0
11002,67.22,-360.88,1116.67,-3430.0,23467.5,1960.0
11030,205.45,-359.41,1120.2,10482.5,13055.0,-80255.0
11059,278.77,-366.85,1112.76,18655.0,-5775.0,-131320.0
11087,278.53,-388.45,1099.34,7490.0,-6825.0,-161910.0
11116,178.97,-407.48,1094.1,-4445.0,-59937.5,-165655.0
11144,-14.4,-400.89,1110.44,-8207.5,-107135.0,-82162.5
11173,-206.67,-372.47,1139.72,15260.0,-9870.0,34317.5
11201,-320.25,-350.38,1141.92,41020.0,73990.0,110845.0
11230,-357.7,-347.7,1108.61,16380.0,75232.5,142135.0
11258,-340.14,-357.46,1079.94,-16047.5,39025.0,145285.0
11287,-265.11,-371.61,1080.92,-19687.5,34510.0,130707.5
11315,-138.35,-382.59,1103.49,-17937.5,38290.0,74235.0
11343,4.39,-384.67,1134.84,-8067.5,8470.0,1522.5
11372,120.29,-376.98,1164.37,5600.0,-16537.5,-67200.0
11400,181.78,-368.81,1176.2,17027.5,-39445.0,-111825.0
11429,187.64,-366.85,1171.32,10762.5,-39970.0,-134382.5
11457,132.13,-363.56,1160.46,3395.0,-42332.5,-140997.5
11486,7.69,-348.43,1153.63,-2747.5,-71627.5,-97090.0
11515,-145.55,-320.86,1158.27,1890.0,-34195.0,-14612.5
11544,-263.76,-293.04,1159.0,23590.0,21385.0,59255.0
11573,-326.84,-276.09,1136.67,28805.0,30957.5,100765.0
11602,-341.36,-271.82,1101.05,7927.5,21577.5,120382.5
11631,-300.36,-274.5,1079.33,-9677.5,36732.5,119350.0
11659,-191.78,-276.09,1078.48,-15382.5,43977.5,85575.0
11688,-42.94,-273.65,1094.34,-20300.0,18357.5,20422.5
11716,91.38,-271.33,1121.91,-7332.5,12687.5,-45692.5
11745,177.51,-274.62,1146.19,8715.0,-350.0,-96880.0
11774,203.25,-285.36,1153.39,22522.5,-2362.5,-129885.0
11803,159.09,-296.46,1134.36,19565.0,-12145.0,-139982.5
11831,32.94,-295.0,1105.69,-3745.0,-78400.0,-100712.5
11860,-128.34,-277.18,1103.61,-15662.5,-62545.0,-6317.5
11888,-246.93,-257.91,1111.3,14192.5,23362.5,65327.5
11917,-304.15,-250.22,1092.88,16397.5,41212.5,104492.5
11946,-308.42,-252.54,1068.72,-7927.5,31027.5,121205.0
11974,-260.35,-256.2,1063.6,-17622.5,37572.5,119577.5
12003,-152.01,-255.83,1076.65,-21420.0,36697.5,89390.0
12031,-6.83,-251.93,1100.81,-16432.5,14157.5,13440.0
12060,108.82,-248.51,1126.3,3045.0,-14052.5,-64540.0
12088,156.89,-250.59,1136.8,19407.5,-23082.5,-106435.0
12117,143.59,-255.96,1129.6,16485.0,-20160.0,-120750.0
12145,67.47,-255.59,1116.67,6002.5,-54687.5,-108920.0
12174,-55.14,-244.49,1117.03,-1067.5,-59797.5,-44555.0
12202,-175.44,-225.46,1126.3,14087.5,-1802.5,24272.5
12231,-260.84,-210.94,1119.23,31902.5,25025.0,79257.5
12260,-296.46,-209.96,1092.14,24185.0,34930.0,115325.0
12289,-273.04,-218.01,1062.62,-3587.5,40915.0,123445.0
12318,-183.49,-225.94,1051.52,-24517.5,27230.0,97142.5
12346,-44.53,-225.82,1064.33,-28577.5,5722.5,31552.5
12375,98.45,-219.84,1088.48,-9222.5,5460.0,-39497.5
12403,198.62,-219.48,1105.81,5320.0,665.0,-100537.5
12432,229.97,-229.85,1107.76,9362.5,-20300.0,-136937.5
12460,185.2,-244.0,1097.76,-1260.0,-34282.5,-139335.0
12489,65.15,-248.39,1095.44,-12145.0,-62247.5,-94990.0
12517,-87.84,-241.19,1112.15,-5320.0,-19565.0,-9205.0
12546,-210.08,-234.61,1122.4,16362.5,40687.5,62790.0
12575,-275.23,-235.7,1104.71,18147.5,40075.0,109392.5
12604,-277.18,-244.37,1077.38,-2450.0,30677.5,128782.5
12633,-207.16,-255.22,1067.87,-20195.0,34282.5,119717.5
12661,-70.76,-261.32,1085.07,-24762.5,30537.5,68915.0
12690,87.47,-260.35,1116.79,-4235.0,22400.0,-15872.5
12718,201.79,-258.15,1136.31,26897.5,-4847.5,-93660.0
12747,235.09,-264.5,1126.06,31902.5,-21262.5,-131197.5
12775,187.39,-277.18,1100.68,4147.5,-25585.0,-132702.5
12804,66.73,-283.65,1093.24,-16555.0,-55702.5,-95322.5
12832,-84.91,-275.72,1111.54,-2450.0,-36837.5,-16502.5
12861,-202.15,-261.08,1120.08,26075.0,21717.5,52762.5
12890,-263.52,-251.44,1095.32,20125.0,33337.5,92225.0
12919,-282.8,-251.08,1062.86,-7752.5,19775.0,112070.0
12948,-267.42,-257.91,1048.47,-22067.5,22820.0,119052.5
12976,-218.26,-266.33,1051.52,-22732.5,18322.5,107642.5
13005,-127.61,-272.43,1065.06,-18637.5,12757.5,79922.5
13033,-5.12,-272.3,1082.63,-15365.0,14647.5,25882.5
13062,113.22,-265.11,1099.71,-5320.0,8715.0,-35262.5
13090,193.0,-260.47,1108.74,12897.5,-4882.5,-90422.5
13119,215.82,-265.96,1103.37,14087.5,-10272.5,-117232.5
13147,183.73,-278.16,1094.46,6282.5,-12512.5,-121012.5
13176,103.33,-288.04,1093.85,4795.0,-31570.0,-100345.0
13204,-7.32,-287.07,1098.0,9695.0,-23345.0,-55965.0
13233,-116.39,-273.52,1097.51,16625.0,-6440.0,-1680.0
13262,-195.44,-254.86,1081.77,24587.5,12617.5,46935.0
13290,-233.02,-239.85,1049.57,7595.0,25410.0,77437.5
13319,-231.56,-229.36,1023.58,-19862.5,26635.0,90317.5
13347,-193.74,-220.58,1020.29,-31902.5,25200.0,85907.5
13376,-122.85,-212.04,1037.98,-30187.5,13247.5,61775.0
13404,-27.33,-205.94,1069.33,-14210.0,5950.0,20562.5
13433,66.61,-204.72,1098.49,6265.0,2555.0,-35700.0
13462,124.2,-207.52,1112.15,22995.0,-10150.0,-83020.0
13491,129.93,-214.23,1101.17,29207.5,-16467.5,-109935.0
13519,74.18,-220.09,1072.75,6265.0,-47827.5,-109830.0
13548,-36.48,-220.21,1056.03,-16782.5,-55860.0,-55370.0
13576,-154.45,-214.72,1061.03,-10027.5,-6457.5,20282.5
13604,-236.8,-209.84,1064.08,11427.5,16800.0,73080.0
13633,-277.18,-212.52,1053.35,11112.5,10867.5,101675.0
13661,-279.26,-223.02,1045.66,17.5,21472.5,119735.0
13690,-235.7,-237.53,1048.47,-3587.5,38465.0,119105.0
13718,-141.76,-252.3,1058.72,-10990.0,24972.5,86450.0
13747,-16.59,-261.32,1078.6,-11742.5,12215.0,26495.0
13775,101.75,-264.25,1101.54,2222.5,9992.5,-39462.5
13804,181.05,-264.86,1114.35,20825.0,-1137.5,-97807.5
13833,202.03,-269.25,1104.95,29925.0,-19687.5,-137620.0
13862,145.42,-277.18,1080.19,7297.5,-62947.5,-143272.5
13891,23.3,-275.35,1075.31,-19880.0,-67917.5,-79660.0
13920,-104.31,-258.88,1093.12,245.0,1767.5,1557.5
13949,-193.0,-240.22,1096.54,23135.0,23940.0,55562.5
13977,-234.0,-230.34,1075.67,20510.0,36085.0,88112.5
14006,-226.43,-228.87,1046.03,-5547.5,44100.0,98350.0
14034,-180.8,-229.6,1025.78,-30677.5,31237.5,80115.0
14063,-120.05,-230.82,1025.78,-39462.5,4165.0,51642.5
14091,-59.54,-232.78,1044.44,-31692.5,2292.5,22925.0
14120,0.61,-235.34,1072.14,-15505.0,9432.5,-3447.5
14149,63.32,-237.9,1101.78,3867.5,14122.5,-35122.5
14178,111.51,-238.63,1122.77,25830.0,1435.0,-73780.0
14207,128.95,-239.12,1129.6,37152.5,-4830.0,-95147.5
14236,121.02,-242.05,1122.4,44555.0,6177.5,-106067.5
14265,75.52,-248.51,1099.95,34755.0,-21735.0,-111282.5
14293,-23.42,-251.69,1078.85,9467.5,-54547.5,-74812.5
14322,-144.45,-245.46,1073.48,5337.5,-22767.5,-5407.5
14350,-243.51,-235.95,1063.6,17675.0,5337.5,54740.0
14379,-305.98,-233.39,1037.0,8015.0,9940.0,95200.0
14408,-335.13,-240.1,1010.77,-9275.0,10132.5,121170.0
14437,-316.22,-255.59,999.3,-20230.0,30852.5,141610.0
14465,-225.7,-274.62,1004.67,-35752.5,53585.0,118370.0
14494,-80.4,-286.21,1035.29,-47092.5,23537.5,47215.0
14523,63.68,-287.19,1090.44,-17815.0,4497.5,-34457.5
14552,157.26,-289.51,1130.94,35332.5,-4165.0,-97877.5
14581,185.2,-302.93,1127.4,45920.0,-17377.5,-133595.0
14609,140.3,-319.4,1095.56,17692.5,-51800.0,-144357.5
14638,18.06,-324.03,1078.24,-16205.0,-87587.5,-95357.5
14666,-127.73,-313.05,1097.02,-8435.0,-31342.5,1050.0
14695,-221.06,-297.68,1111.18,29505.0,38535.0,68792.5
14723,-247.78,-289.14,1090.31,23992.5,45115.0,94675.0
14752,-222.77,-286.58,1065.3,-8837.5,33005.0,98997.5
14780,-156.4,-285.36,1062.38,-22260.0,30887.5,79240.0
14809,-60.88,-283.04,1079.21,-18795.0,21980.0,37572.5
14838,39.04,-278.77,1104.83,-1645.0,14857.5,-22347.5
14867,107.12,-273.65,1121.3,23572.5,-945.0,-73972.5
14896,123.46,-271.69,1113.86,30712.5,-16852.5,-104737.5
14924,77.1,-269.62,1091.29,11882.5,-54792.5,-111230.0
14953,-25.38,-260.59,1078.97,-5670.0,-62037.5,-63962.5
14981,-137.86,-246.81,1079.46,840.0,-7560.0,7297.5
15010,-220.82,-237.41,1071.89,8312.5,14962.5,61617.5
15038,-268.89,-238.88,1052.62,297.5,10482.5,93047.5
15067,-280.36,-249.37,1037.73,-11060.0,12950.0,117845.0
15095,-229.36,-264.98,1038.59,-20527.5,36382.5,126332.5
15124,-104.8,-278.4,1060.42,-29452.5,22190.0,79520.0
15152,48.19,-283.28,1103.86,-11847.5,-2782.5,-4777.5
15181,173.24,-286.33,1140.94,33670.0,560.0,-77910.0
15210,243.02,-298.17,1139.36,50750.0,-2012.5,-129132.5
15238,249.0,-320.01,1107.76,24710.0,-15960.0,-150150.0
15267,181.41,-340.5,1082.14,-5582.5,-39287.5,-144795.0
15295,47.09,-348.8,1085.68,-9170.0,-53847.5,-87360.0
15324,-100.28,-341.84,1101.9,11882.5,-7227.5,-1995.0
15352,-206.42,-327.45,1097.88,28245.0,24815.0,61040.0
15381,-260.35,-318.91,1065.55,18550.0,36942.5,97527.5
15409,-277.06,-318.3,1026.14,-14157.5,28332.5,110075.0
15438,-267.67,-323.18,1006.74,-33460.0,22767.5,119175.0
15466,-222.65,-330.13,1009.79,-35595.0,43907.5,116865.0
15495,-133.96,-335.74,1027.97,-41545.0,28525.0,86695.0
15524,-18.91,-339.28,1068.48,-42262.5,12337.5,36855.0
15552,89.55,-340.75,1130.57,-10097.5,7717.5,-22627.5
15581,161.89,-346.97,1173.27,41580.0,1767.5,-84035.0
15609,176.17,-361.61,1177.18,52045.0,-25987.5,-119840.0
15638,120.29,-372.95,1163.27,46042.5,-45097.5,-123742.5
15666,0.98,-366.98,1142.9,30642.5,-71102.5,-80640.0
15695,-134.08,-343.31,1125.94,23170.0,-29592.5,3500.0
15723,-225.46,-318.79,1102.64,26285.0,27405.0,72800.0
15752,-262.67,-304.51,1066.65,9520.0,31605.0,102357.5
15781,-258.4,-300.12,1040.17,-14052.5,21507.5,114135.0
15810,-205.69,-301.83,1035.66,-25077.5,36732.5,110932.5
15838,-99.8,-303.54,1050.05,-29732.5,20930.0,68985.0
15866,29.16,-302.19,1079.94,-18585.0,-840.0,1400.0
15895,143.35,-300.73,1110.69,8680.0,-1942.5,-61320.0
15923,223.26,-305.85,1123.5,26355.0,-3780.0,-111317.5
15952,259.86,-321.23,1112.03,29680.0,4515.0,-148732.5
15980,233.63,-343.55,1078.97,12652.5,-20160.0,-173547.5
16009,116.02,-360.63,1059.57,-26075.0,-85977.5,-137147.5
16037,-51.61,-361.61,1083.36,-21315.0,-33495.0,-33530.0
16066,-188.98,-351.6,1106.54,19442.5,32585.0,50032.5
16095,-272.79,-345.5,1092.27,26582.5,31045.0,101885.0
16124,-310.12,-350.63,1061.16,6860.0,35070.0,135082.5
16153,-298.78,-365.51,1038.59,-19477.5,48947.5,149712.5
16182,-217.4,-386.01,1041.15,-39690.0,61460.0,135642.5
16211,-74.66,-401.26,1076.53,-48055.0,37817.5,61757.5
16239,71.61,-405.53,1136.06,-12687.5,4427.5,-27667.5
16268,175.07,-407.48,1183.16,41860.0,1365.0,-99312.5
16296,219.23,-419.92,1186.45,63245.0,-6387.5,-146230.0
16325,201.54,-440.66,1161.68,41930.0,-19267.5,-167195.0
16353,109.8,-453.84,1133.38,26145.0,-58275.0,-160230.0
16382,-55.39,-450.18,1115.57,5215.0,-89285.0,-78732.5
16411,-220.7,-432.37,1117.52,5372.5,-4567.5,34282.5
16440,-318.79,-415.53,1107.76,24972.5,63700.0,101465.0
16469,-356.61,-409.68,1068.11,5355.0,53952.5,129377.5
16498,-354.78,-414.19,1030.78,-32322.5,28700.0,141837.5
16527,-310.61,-425.05,1025.78,-54792.5,38710.0,139422.5
16555,-217.65,-435.66,1058.35,-51677.5,38867.5,103127.5
16584,-96.26,-440.18,1115.45,-25532.5,19197.5,36330.0
16612,13.42,-437.98,1175.71,7787.5,-8715.0,-36137.5
16641,87.35,-435.3,1214.14,47845.0,-22487.5,-89565.0
16669,121.02,-436.52,1217.32,62142.5,-28962.5,-128800.0
16698,110.9,-440.18,1191.7,51940.0,-41055.0,-153160.0
16726,33.55,-440.18,1149.0,23677.5,-67322.5,-148120.0
16755,-115.41,-428.34,1123.5,-12442.5,-90020.0,-66972.5
16783,-268.16,-408.58,1132.16,2572.5,-14437.5,43050.0
16812,-362.1,-396.01,1129.84,30537.5,65940.0,114135.0
16841,-391.13,-396.26,1095.56,12827.5,76335.0,144287.5
16869,-356.85,-403.7,1063.47,-31360.0,55247.5,142397.5
16898,-265.23,-411.51,1069.7,-60130.0,43872.5,105595.0
16926,-142.37,-413.34,1119.47,-48142.5,44677.5,49595.0
16955,-27.08,-407.11,1182.06,-5337.5,43750.0,-21892.5
16983,40.75,-397.48,1218.54,46200.0,9030.0,-77962.5
17012,49.17,-389.18,1206.46,67182.5,-29960.0,-110827.5
17040,-7.44,-379.18,1163.03,33985.0,-81357.5,-118965.0
17069,-121.02,-359.66,1133.99,-5792.5,-80500.0,-64977.5
17097,-242.9,-332.45,1126.55,3885.0,-17115.0,14070.0
17126,-326.84,-309.88,1107.03,17132.5,27440.0,72467.5
17155,-361.24,-299.75,1072.38,192.5,30275.0,103600.0
17183,-337.7,-301.71,1051.15,-27912.5,34615.0,115605.0
17212,-250.71,-306.71,1062.01,-42577.5,35315.0,84122.5
17240,-130.54,-306.46,1103.12,-28437.5,23887.5,26320.0
17269,-16.84,-302.56,1153.51,7630.0,29452.5,-35385.0
17297,61.49,-303.9,1181.2,50575.0,8172.5,-91070.0
17326,88.82,-312.69,1173.88,58450.0,-25095.0,-134575.0
17354,49.04,-322.2,1140.94,41440.0,-67305.0,-156992.5
17383,-63.93,-323.3,1110.08,-1557.5,-80745.0,-110775.0
17411,-203.86,-310.0,1108.86,-12390.0,-28035.0,-20510.0
17440,-311.71,-291.34,1110.57,16345.0,20877.5,49385.0
17469,-373.69,-279.99,1084.82,16345.0,26495.0,90107.5
17497,-398.33,-278.04,1049.44,-6300.0,19530.0,117355.0
17526,-380.52,-283.41,1032.97,-22785.0,37992.5,131617.5
17554,-301.22,-291.21,1045.17,-25515.0,66692.5,114380.0
17583,-174.34,-294.75,1078.97,-24080.0,43592.5,45010.0
17611,-56.97,-293.29,1129.23,-7840.0,-16835.0,-26005.0
17640,15.37,-292.8,1172.66,31535.0,-19705.0,-74725.0
17668,41.48,-294.14,1179.37,51187.5,-16520.0,-107572.5
17697,25.99,-292.68,1149.73,37082.5,-38762.5,-125282.5
17725,-34.89,-285.24,1110.2,4602.5,-57575.0,-112980.0
17754,-135.91,-270.23,1093.36,-14962.5,-57242.5,-61372.5
17782,-246.2,-249.61,1098.37,-752.5,-24640.0,4655.0
17810,-330.38,-231.19,1094.46,13160.0,15155.0,59902.5
17839,-374.42,-220.94,1072.5,4252.5,31727.5,93642.5
17867,-379.66,-218.38,1050.05,-13107.5,25830.0,108727.5
17896,-342.58,-222.04,1043.1,-23275.0,33162.5,110197.5
17924,-260.59,-228.63,1053.84,-30240.0,36452.5,86607.5
17953,-151.04,-233.51,1079.94,-31797.5,21805.0,37310.0
17981,-49.65,-234.85,1114.23,-15925.0,13212.5,-19897.5
18010,16.35,-234.48,1138.99,15627.5,-3185.0,-63997.5
18039,39.53,-236.44,1140.94,31605.0,-11917.5,-90247.5
18068,18.91,-238.63,1125.45,25357.5,-27492.5,-94972.5
18097,-37.21,-232.78,1110.44,13300.0,-31902.5,-67392.5
18126,-103.94,-215.82,1101.42,9100.0,-9187.5,-33302.5
18155,-166.77,-191.54,1086.04,9730.0,-9240.0,-12092.5
18183,-226.68,-165.68,1061.28,2800.0,-18410.0,13265.0
18212,-281.58,-143.72,1031.75,-5022.5,-12320.0,43505.0
18240,-323.06,-131.64,1003.69,-14385.0,-8085.0,76002.5
18269,-338.67,-132.98,983.93,-21017.5,5145.0,98770.0
18297,-310.0,-148.11,980.88,-27037.5,26232.5,112227.5
18326,-212.52,-172.14,1002.23,-36137.5,39060.0,90405.0
18354,-67.59,-194.96,1052.25,-33232.5,12215.0,13930.0
18383,56.85,-214.35,1118.01,11340.0,-13650.0,-70227.5
18411,121.76,-238.02,1152.17,69002.5,-13877.5,-122027.5
18440,132.49,-264.62,1141.07,64155.0,-9835.0,-145670.0
18468,88.08,-285.11,1108.74,43435.0,-18025.0,-153265.0
18497,-28.3,-290.48,1075.8,10832.5,-55580.0,-113242.5
18525,-179.95,-277.43,1062.99,-6790.0,-31937.5,-21000.0
18553,-299.14,-259.37,1058.23,10517.5,20160.0,62580.0
18582,-362.1,-251.93,1033.95,10850.0,40582.5,110442.5
18610,-377.71,-257.05,1000.89,-18322.5,34947.5,128310.0
18639,-352.34,-269.13,990.03,-38832.5,30905.0,132055.0
18667,-281.33,-281.33,1007.72,-36417.5,33267.5,113312.5
18696,-168.85,-289.38,1043.34,-30922.5,18147.5,69930.0
18724,-36.84,-292.31,1092.51,-18252.5,15925.0,8067.5
18753,76.62,-292.56,1138.99,16765.0,805.0,-62807.5
18782,136.64,-298.53,1155.22,51765.0,-24675.0,-116287.5
18811,135.42,-311.59,1135.58,44940.0,-27790.0,-138495.0
18839,64.78,-321.1,1104.47,16292.5,-46707.5,-132387.5
18868,-74.3,-315.98,1090.07,-3237.5,-69947.5,-69457.5
18897,-222.28,-296.7,1092.63,6510.0,-14210.0,26600.0
18925,-318.18,-280.11,1079.94,21192.5,38202.5,97510.0
18954,-351.12,-277.18,1047.25,4357.5,42437.5,129902.5
18982,-316.83,-284.87,1026.26,-23835.0,41422.5,137077.5
19011,-215.94,-293.17,1033.58,-41912.5,40582.5,99995.0
19039,-77.47,-295.48,1072.01,-36575.0,21070.0,35787.5
19068,54.17,-295.97,1124.47,1522.5,28630.0,-42437.5
19097,141.03,-304.27,1152.66,38920.0,2047.5,-108622.5
19126,161.28,-323.42,1144.85,36697.5,-30800.0,-146405.0
19154,114.44,-338.18,1125.21,19442.5,-31412.5,-144812.5
19183,9.15,-334.77,1112.15,11672.5,-38220.0,-114835.0
19212,-127.73,-316.96,1100.56,17150.0,-43172.5,-38797.5
19240,-245.1,-296.7,1081.65,7682.5,11900.0,41212.5
19269,-311.59,-283.04,1058.35,-3185.0,39235.0,90160.0
19297,-328.79,-278.89,1040.66,-12722.5,26057.5,106680.0
19326,-298.29,-280.36,1040.29,-17640.0,19530.0,105735.0
19354,-216.31,-280.6,1057.98,-15662.5,29592.5,79695.0
19383,-98.7,-276.33,1088.0,-12880.0,16625.0,28630.0
19411,16.96,-269.13,1122.52,8347.5,5617.5,-37187.5
19440,91.38,-264.62,1139.6,38237.5,-12547.5,-93327.5
19469,105.16,-267.79,1125.21,39497.5,-25725.0,-121572.5
19498,52.95,-271.69,1093.24,10377.5,-45255.0,-118947.5
19527,-57.71,-266.08,1077.87,-18147.5,-70402.5,-66150.0
19556,-179.71,-250.95,1090.07,-6247.5,-25462.5,8732.5
19585,-266.94,-234.97,1091.78,21437.5,22295.0,61162.5
19613,-310.98,-226.07,1062.74,13545.0,32532.5,94972.5
19642,-312.69,-225.46,1028.22,-16397.5,33792.5,110897.5
19670,-271.57,-228.38,1014.92,-39375.0,39480.0,110512.5
19699,-186.17,-232.78,1030.41,-46602.5,36207.5,86607.5
19727,-71.49,-235.46,1068.48,-36190.0,27580.0,28507.5
19756,31.96,-235.46,1114.84,-2957.5,910.0,-43785.0
19785,89.67,-238.51,1144.24,39655.0,-21577.5,-94237.5
19814,96.99,-246.68,1141.31,50260.0,-24377.5,-120452.5
19842,50.87,-253.15,1117.28,30957.5,-45867.5,-121065.0
19871,-47.82,-250.34,1097.27,3657.5,-61915.0,-75092.5
19900,-160.92,-238.14,1092.63,-997.5,-23362.5,-1715.0
19928,-246.2,-224.48,1085.19,10307.5,12845.0,55737.5
19957,-292.8,-218.01,1062.74,6055.0,24202.5,93030.0
19985,-292.31,-220.45,1042.61,-12950.0,39655.0,114485.0
20014,-230.7,-226.19,1042.0,-28192.5,56087.5,102567.5
20042,-124.32,-229.48,1064.21,-35297.5,31850.0,52990.0
20071,-17.08,-227.53,1105.56,-17412.5,9380.0,-10762.5
20099,57.46,-223.02,1138.5,33582.5,5547.5,-60865.0
20128,86.99,-223.02,1131.43,54022.5,-12040.0,-103810.0
20156,36.97,-227.9,1097.88,24972.5,-86485.0,-120470.0
20185,-84.42,-225.82,1090.44,-10850.0,-93432.5,-41072.5
20213,-190.81,-212.04,1106.54,10237.5,20440.0,42122.5
20242,-239.97,-199.35,1098.24,23520.0,42437.5,80920.0
20271,-234.97,-194.71,1071.77,1715.0,21490.0,99155.0
20299,-166.04,-192.76,1059.2,-22102.5,35035.0,83160.0
20328,-55.14,-187.27,1073.23,-29330.0,28262.5,23310.0
20356,45.51,-179.83,1105.44,-7682.5,-2170.0,-41440.0
20385,104.8,-178.0,1125.45,29575.0,-7560.0,-89302.5
20413,114.56,-183.73,1111.05,31080.0,-5722.5,-117477.5
20442,63.68,-188.61,1075.55,4427.5,-37205.0,-121852.5
20471,-54.29,-188.12,1056.89,-22417.5,-81987.5,-63472.5
20500,-183.0,-185.07,1070.31,-6930.0,-20317.5,31465.0
20529,-256.69,-185.07,1075.67,15767.5,47302.5,88375.0
20558,-261.93,-190.32,1060.79,-2940.0,46322.5,112385.0
20587,-204.72,-196.54,1060.18,-24342.5,38395.0,99382.5
20615,-116.75,-198.62,1082.87,-22067.5,18427.5,56070.0
20644,-34.65,-196.54,1115.2,1242.5,8907.5,14577.5
20673,28.79,-192.27,1135.45,26477.5,9835.0,-25900.0
20702,60.63,-186.17,1134.6,33372.5,-11567.5,-60480.0
20730,51.48,-175.56,1120.57,33600.0,-27510.0,-72275.0
20759,-3.66,-157.87,1093.73,28157.5,-43522.5,-61722.5
20788,-98.82,-136.88,1060.91,9082.5,-47845.0,-8032.5
20817,-186.05,-122.98,1036.51,-7700.0,8977.5,62107.5
20846,-221.8,-121.39,1021.14,-16152.5,40372.5,98297.5
20875,-199.47,-129.2,1015.65,-23817.5,28297.5,97790.0
20904,-125.17,-138.1,1024.56,-27965.0,16782.5,66272.5
20932,-21.84,-141.64,1047.98,-24902.5,6440.0,13492.5
20961,75.27,-141.89,1080.31,-3465.0,-1102.5,-40810.0
20989,141.4,-147.86,1102.64,20965.0,-1277.5,-85487.5
21018,166.9,-162.02,1106.05,23730.0,-4812.5,-116025.0
21046,143.96,-176.9,1094.83,19092.5,-16152.5,-135292.5
21075,56.61,-183.0,1081.16,4830.0,-61005.0,-113907.5
21104,-75.52,-178.61,1077.63,-997.5,-44800.0,-37992.5
21133,-193.49,-171.78,1073.6,1522.5,1855.0,44642.5
21162,-265.96,-172.14,1060.42,1137.5,11620.0,99680.0
21191,-286.21,-184.22,1049.2,-9537.5,34667.5,132352.5
21220,-242.29,-202.76,1048.47,-16835.0,66447.5,134155.0
21248,-135.3,-219.11,1058.84,-28227.5,45570.0,86922.5
21277,-3.9,-227.77,1086.78,-23905.0,2572.5,10360.0
21305,102.72,-230.46,1118.62,12320.0,245.0,-60602.5
21334,154.94,-235.7,1125.33,35245.0,-14000.0,-112000.0
21362,138.35,-247.54,1108.74,22032.5,-43067.5,-135520.0
21391,45.38,-254.98,1098.98,-3552.5,-81742.5,-107922.5
21419,-82.11,-248.39,1112.76,5250.0,-46550.0,-18865.0
21448,-178.0,-233.63,1116.67,33442.5,28927.5,48142.5
21477,-227.65,-221.31,1087.26,26180.0,35927.5,85837.5
21506,-236.68,-216.18,1051.64,-5460.0,34930.0,106382.5
21535,-206.67,-216.92,1035.17,-27702.5,45920.0,106802.5
21563,-143.23,-221.67,1040.66,-33652.5,30327.5,85382.5
21592,-55.02,-231.19,1063.11,-28612.5,12915.0,46410.0
21620,43.19,-241.44,1095.32,-14455.0,19267.5,-8645.0
21649,121.76,-250.71,1123.99,11532.5,3132.5,-67760.0
21677,157.38,-260.47,1133.99,31885.0,-7227.5,-106382.5
21706,144.69,-268.89,1122.16,31360.0,-19145.0,-126000.0
21734,72.22,-271.08,1102.64,13947.5,-58362.5,-114135.0
21763,-44.65,-261.69,1096.29,-700.0,-54512.5,-45867.5
21792,-150.3,-244.24,1098.61,13282.5,6405.0,29662.5
21821,-208.25,-230.09,1086.53,22662.5,41597.5,77805.0
21850,-206.55,-225.21,1061.03,4147.5,53375.0,92627.5
21879,-145.79,-223.99,1045.42,-26057.5,36995.0,64312.5
21908,-53.31,-218.87,1061.16,-35420.0,2502.5,15802.5
21936,26.23,-209.35,1095.56,-3815.0,-3220.0,-36890.0
21965,56.61,-200.81,1111.91,25672.5,-17902.5,-72695.0
21993,24.28,-196.42,1103.12,18200.0,-48755.0,-75337.5
22022,-54.17,-189.47,1094.1,-192.5,-51992.5,-34020.0
22050,-135.18,-178.85,1091.78,6160.0,-12337.5,23450.0
22079,-187.39,-172.39,1078.24,12740.0,9345.0,58975.0
22108,-205.94,-173.24,1054.57,315.0,3255.0,81830.0
22137,-175.92,-178.36,1038.95,-13300.0,23555.0,90387.5
22165,-82.72,-182.51,1038.34,-22417.5,27580.0,61442.5
22194,44.53,-183.24,1054.32,-19372.5,7542.5,-4672.5
22223,150.91,-185.2,1076.53,3027.5,-1715.0,-69772.5
22251,201.91,-196.66,1085.8,17132.5,-6020.0,-113172.5
22280,189.71,-214.23,1082.14,10430.0,-11235.0,-127750.0
22308,115.78,-225.09,1077.14,2607.5,-29522.5,-114362.5
22337,-5.12,-223.26,1082.87,385.0,-40477.5,-53812.5
22366,-123.95,-213.38,1093.97,18812.5,4795.0,24290.0
22395,-203.5,-205.2,1088.24,32707.5,19162.5,75512.5
22423,-241.56,-205.69,1065.55,24045.0,22592.5,108132.5
22452,-231.07,-215.21,1044.81,122.5,41930.0,128275.0
22481,-154.82,-228.14,1040.66,-17290.0,49420.0,114450.0
22510,-27.82,-238.51,1054.2,-22610.0,19005.0,49892.5
22539,100.77,-244.0,1079.94,-7997.5,2782.5,-22995.0
22568,195.44,-250.1,1098.37,16187.5,6002.5,-83335.0
22597,239.0,-263.89,1097.02,19320.0,-1785.0,-126402.5
22625,219.48,-282.31,1090.19,9135.0,-22382.5,-149660.0
22654,122.12,-293.04,1089.46,3955.0,-72887.5,-138022.5
22682,-34.89,-285.36,1101.54,3587.5,-74567.5,-55737.5
22711,-177.27,-266.69,1112.27,28455.0,13807.5,46742.5
22739,-255.1,-254.74,1092.75,34335.0,62527.5,106260.0
22768,-275.23,-255.1,1051.88,6230.0,50802.5,128887.5
22796,-240.71,-266.94,1025.41,-28122.5,38167.5,136360.0
22825,-144.57,-283.65,1031.88,-47320.0,41807.5,102130.0
22853,-20.86,-294.63,1070.43,-43890.0,2397.5,28857.5
22882,81.01,-301.1,1122.4,420.0,-13247.5,-37240.0
22911,142.98,-307.81,1151.56,34877.5,2677.5,-81987.5
22939,166.16,-313.54,1152.05,37765.0,-1540.0,-109725.0
22968,148.11,-314.39,1139.24,34212.5,-21297.5,-123917.5
22996,83.08,-306.83,1114.59,20265.0,-40880.0,-112840.0
23025,-29.77,-289.87,1090.68,-8295.0,-47687.5,-64610.0
23053,-157.62,-268.03,1090.44,-11462.5,-15225.0,19932.5
23082,-247.17,-252.66,1094.46,15172.5,32742.5,80570.0
23110,-284.63,-248.88,1076.16,12950.0,37607.5,107957.5
23139,-273.4,-253.03,1053.23,-12442.5,26705.0,120207.5
23167,-211.06,-259.01,1049.57,-30205.0,30870.0,108010.0
23196,-107.6,-262.42,1068.96,-32270.0,21420.0,64820.0
23225,10.61,-264.74,1102.88,-18427.5,11812.5,3587.5
23253,115.17,-271.57,1132.77,13352.5,9380.0,-57032.5
23282,177.75,-283.28,1140.09,35805.0,-12495.0,-109707.5
23310,184.71,-292.43,1125.08,33495.0,-22942.5,-130112.5
23339,139.2,-294.02,1098.24,19950.0,-27982.5,-128345.0
23367,29.16,-290.85,1067.87,-4357.5,-54775.0,-98560.0
23396,-123.34,-281.7,1062.01,-23502.5,-66325.0,-15067.5
23424,-250.1,-271.08,1076.77,6527.5,5460.0,63630.0
23453,-318.66,-271.45,1064.57,20107.5,54617.5,111177.5
23481,-330.74,-285.24,1031.88,-14472.5,33950.0,137637.5
23510,-276.21,-306.22,1026.02,-42035.0,28665.0,138057.5
23538,-160.8,-324.15,1059.45,-39235.0,32095.0,94115.0
23566,-19.76,-332.57,1110.57,-13037.5,32935.0,25252.5
23595,103.21,-336.23,1150.46,24500.0,13842.5,-51012.5
23623,178.61,-346.97,1162.42,47075.0,-19495.0,-104510.0
23652,199.1,-365.27,1149.48,42560.0,-30520.0,-135415.0
23680,155.06,-376.25,1127.16,28542.5,-45307.5,-141190.0
23709,44.29,-371.61,1105.81,16275.0,-61285.0,-98542.5
23737,-92.6,-355.26,1093.85,-11112.5,-12600.0,-21735.0
23766,-201.91,-336.96,1095.8,-15102.5,34702.5,40267.5
23794,-268.52,-323.67,1085.56,16275.0,25847.5,74077.5
23823,-303.54,-317.69,1053.1,962.5,7945.0,99120.0
23852,-296.95,-319.76,1032.97,-31762.5,28297.5,118825.0
23880,-232.04,-324.03,1044.32,-37730.0,49437.5,102497.5
23909,-119.32,-323.79,1081.65,-23642.5,38465.0,59570.0
23937,10.74,-319.03,1131.55,5145.0,37432.5,-6580.0
23966,112.97,-318.42,1171.08,37327.5,2257.5,-69422.5
23994,165.19,-328.79,1179.74,57085.0,-20895.0,-108640.0
24023,170.43,-341.97,1163.03,39410.0,-27212.5,-130935.0
24051,114.8,-349.16,1142.65,21490.0,-39672.5,-136745.0
24080,-20.74,-347.94,1124.11,14892.5,-86922.5,-93922.5
24108,-188.86,-339.65,1110.69,-140.0,-51747.5,367.5
24137,-315.13,-331.6,1091.78,1435.0,22592.5,76002.5
24166,-380.15,-333.3,1054.2,-12757.5,27125.0,125072.5
24194,-388.45,-347.82,1026.02,-40477.5,20195.0,145145.0
24223,-335.5,-369.17,1030.17,-45395.0,33775.0,142747.5
24251,-222.65,-388.33,1061.89,-41650.0,28437.5,99890.0
24280,-77.71,-399.43,1110.44,-18742.5,14245.0,30730.0
24308,55.14,-406.99,1148.39,19932.5,4357.5,-44502.5
24337,139.93,-417.73,1154.36,36452.5,-17675.0,-99365.0
24365,169.34,-432.86,1137.53,28210.0,-18340.0,-129395.0
24394,147.86,-445.79,1121.91,16082.5,-16747.5,-140647.5
24422,56.0,-447.74,1119.72,19582.5,-45727.5,-130550.0
24451,-106.99,-432.61,1127.16,21315.0,-30642.5,-56997.5
24479,-267.06,-406.26,1118.37,35805.0,43802.5,39305.0
24507,-359.78,-385.52,1077.99,20667.5,56857.5,102375.0
24536,-389.3,-382.1,1038.71,-17377.5,31500.0,127452.5
24564,-368.68,-394.06,1027.97,-37065.0,14735.0,134575.0
24593,-297.19,-409.8,1045.3,-36522.5,9012.5,114922.5
24621,-181.78,-419.68,1082.14,-22645.0,6877.5,69282.5
24650,-39.28,-421.39,1123.62,-612.5,26705.0,6825.0
24679,92.11,-417.12,1151.44,20457.5,21000.0,-68652.5
24708,170.8,-416.51,1146.68,37555.0,-20107.5,-122377.5
24736,181.29,-424.8,1115.81,15732.5,-36505.0,-154210.0
24765,108.34,-433.71,1094.58,-4410.0,-46865.0,-152932.5
24793,-45.38,-433.34,1093.24,-4707.5,-85592.5,-87902.5
24821,-213.26,-423.22,1106.42,-2922.5,-36295.0,11287.5
24850,-327.57,-411.26,1112.15,18672.5,44030.0,79852.5
24878,-382.47,-406.02,1087.26,17010.0,49822.5,118247.5
24907,-383.93,-412.73,1061.28,-10850.0,32830.0,138005.0
24935,-328.3,-424.68,1065.79,-19092.5,32515.0,129447.5
24964,-213.99,-430.9,1100.81,-9100.0,37660.0,91280.0
24992,-59.54,-427.49,1148.02,19985.0,37100.0,21525.0
25021,81.5,-421.14,1181.94,40582.5,-192.5,-61075.0
25050,167.14,-423.46,1188.4,39742.5,-41562.5,-116900.0
25079,191.54,-433.83,1171.44,24465.0,-42997.5,-143605.0
25107,152.99,-442.86,1148.26,-735.0,-42402.5,-151042.5
25136,27.94,-444.69,1139.97,-17185.0,-87990.0,-118597.5
25165,-148.96,-435.91,1155.83,-8067.5,-72555.0,-21577.5
25193,-293.78,-420.9,1166.08,22085.0,24990.0,53515.0
25222,-378.08,-412.12,1141.31,27107.5,58030.0,107905.0
25250,-404.55,-418.34,1105.44,-7122.5,50382.5,140122.5
25279,-366.12,-435.66,1094.58,-32515.0,45500.0,150570.0
25307,-249.73,-449.69,1117.03,-37065.0,39725.0,119577.5
25336,-77.96,-449.69,1164.12,-18917.5,22015.0,39515.0
25365,82.23,-442.01,1210.12,19932.5,5582.5,-55072.5
25394,181.54,-443.1,1220.12,46095.0,-21472.5,-120137.5
25422,211.06,-456.77,1189.38,30397.5,-39777.5,-150990.0
25450,167.87,-471.77,1155.95,-11830.0,-47705.0,-154332.5
25478,33.79,-476.29,1151.07,-29925.0,-98735.0,-113627.5
25506,-143.72,-465.43,1175.47,-15505.0,-68617.5,-13965.0
25535,-279.5,-446.28,1189.74,25585.0,45972.5,67095.0
25563,-352.82,-434.32,1165.34,30520.0,64260.0,124022.5
25592,-372.1,-437.37,1129.96,6037.5,42227.5,145215.0
25620,-321.96,-451.16,1119.35,-21700.0,41737.5,144375.0
25649,-195.2,-461.89,1151.07,-30660.0,44397.5,92417.5
25677,-34.53,-462.5,1206.7,385.0,27825.0,10920.0
25706,98.58,-460.43,1243.79,35892.5,-1767.5,-69002.5
25735,170.31,-465.31,1237.93,47162.5,-29662.5,-116270.0
25764,180.32,-475.31,1202.55,22662.5,-27667.5,-135695.0
25793,122.61,-477.02,1164.61,-2887.5,-42822.5,-131425.0
25821,-2.32,-466.28,1148.26,-30975.0,-90020.0,-83142.5
25850,-161.28,-447.25,1163.15,-20335.0,-83790.0,-11147.5
25878,-293.29,-427.0,1183.03,29557.5,10097.5,65782.5
25907,-361.49,-418.09,1164.86,43435.0,97720.0,119945.0
25935,-357.22,-423.83,1123.62,-6807.5,82407.5,153860.0
25964,-263.76,-437.0,1120.69,-59465.0,43435.0,128870.0
25992,-114.68,-444.93,1173.64,-47127.5,23817.5,48702.5
26021,30.01,-445.91,1240.37,20387.5,32935.0,-30817.5
26050,125.42,-450.67,1267.82,76825.0,9537.5,-100467.5
26079,152.26,-457.13,1241.59,81410.0,-28665.0,-132387.5
26108,112.61,-457.26,1191.57,24132.5,-55055.0,-136832.5
26136,3.54,-448.84,1162.66,-22242.5,-92925.0,-99225.0
26165,-149.33,-430.66,1161.2,-4865.0,-77875.0,-25340.0
26193,-282.8,-410.16,1157.78,21122.5,3535.0,57925.0
26222,-357.22,-398.45,1132.28,20335.0,79065.0,108920.0
26250,-379.18,-400.77,1094.83,-13825.0,62370.0,134540.0
26279,-338.67,-413.95,1085.56,-51817.5,35787.5,145880.0
26307,-221.06,-427.12,1130.45,-51677.5,39322.5,97387.5
26336,-66.37,-429.44,1203.16,6597.5,20335.0,12495.0
26365,63.68,-426.51,1250.01,54442.5,-612.5,-66080.0
26394,134.2,-427.49,1247.08,66360.0,-33407.5,-116672.5
26422,144.94,-430.66,1211.09,32095.0,-42490.0,-137270.0
26450,93.09,-430.05,1174.86,-11725.0,-64067.5,-137847.5
26479,-25.38,-421.14,1161.2,-26145.0,-103425.0,-96460.0
26507,-181.78,-401.87,1169.25,-5372.5,-81147.5,-14612.5
26536,-314.03,-383.2,1177.79,27072.5,30957.5,72887.5
26564,-382.59,-378.2,1159.0,35630.0,131600.0,126525.0
26593,-385.64,-387.35,1115.2,-17062.5,102690.0,151935.0
26621,-316.83,-405.04,1099.1,-84315.0,14717.5,133682.5
26650,-187.03,-423.22,1147.17,-84385.0,-22102.5,78207.5
26678,-35.14,-435.05,1223.78,-8645.0,33932.5,4987.5
26707,85.4,-444.32,1263.8,64050.0,39410.0,-73097.5
26736,144.94,-456.4,1246.84,74147.5,-22767.5,-122290.0
26764,145.91,-465.8,1205.85,28542.5,-41755.0,-142065.0
26793,84.67,-465.67,1174.37,-4742.5,-47075.0,-139755.0
26821,-52.83,-457.87,1158.02,-12022.5,-94412.5,-94132.5
26850,-224.36,-442.37,1168.03,-17220.0,-70280.0,7647.5
26878,-347.58,-427.98,1181.81,36837.5,47460.0,88987.5
26907,-398.7,-425.17,1151.07,37240.0,87220.0,132177.5
26935,-392.72,-433.1,1104.22,-28157.5,40582.5,144777.5
26964,-329.03,-447.98,1101.29,-61162.5,17727.5,135905.0
26992,-208.25,-460.67,1145.34,-42157.5,24080.0,95900.0
27021,-49.17,-465.31,1204.63,5775.0,43207.5,18970.0
27050,88.21,-469.94,1237.32,61022.5,-11217.5,-78732.5
27078,152.26,-482.14,1223.66,59517.5,-67602.5,-131512.5
27107,151.04,-494.95,1188.77,15680.0,-34195.0,-144777.5
27135,82.96,-498.49,1162.78,-14910.0,-24815.0,-139282.5
27164,-55.88,-488.98,1160.46,-12005.0,-91227.5,-86817.5
27192,-215.57,-467.99,1173.76,13002.5,-58940.0,3290.0
27221,-333.18,-447.01,1171.44,37222.5,48965.0,81217.5
27249,-390.16,-436.64,1135.7,17867.5,86170.0,125510.0
27278,-388.57,-440.05,1097.51,-29557.5,36487.5,146492.5
27306,-318.3,-451.64,1104.22,-54040.0,28280.0,135380.0
27335,-184.95,-459.7,1154.24,-25217.5,31307.5,81252.5
27364,-27.82,-461.16,1206.09,19215.0,25462.5,2590.0
27393,99.31,-462.87,1230.0,46602.5,-5057.5,-75005.0
27422,164.21,-469.94,1218.41,45447.5,-33792.5,-121800.0
27450,169.09,-478.12,1189.62,9222.5,-33407.5,-139457.5
27479,110.53,-479.22,1172.05,-20230.0,-62772.5,-138792.5
27507,-17.2,-468.24,1179.13,-13860.0,-102235.0,-91262.5
27536,-169.46,-446.03,1200.48,11585.0,-44502.5,-2992.5
27564,-284.02,-422.85,1205.73,40897.5,67532.5,67427.5
27593,-344.53,-409.43,1169.86,31815.0,101657.5,110565.0
27621,-359.53,-407.6,1118.25,-19127.5,45062.5,130672.5
27650,-329.89,-415.78,1096.05,-46042.5,12267.5,134050.0
27678,-244.49,-429.44,1112.4,-45640.0,26372.5,113400.0
27707,-106.63,-439.2,1153.75,-26022.5,38395.0,52850.0
27736,41.97,-441.4,1195.36,10500.0,36207.5,-31797.5
27764,147.62,-445.91,1211.22,38972.5,-7192.5,-103880.0
27793,187.15,-458.48,1195.97,37800.0,-39742.5,-141627.5
27821,161.04,-471.9,1170.96,1050.0,-37240.0,-151375.0
27850,64.42,-476.29,1165.83,-17255.0,-66255.0,-132265.0
27878,-85.28,-467.26,1181.45,1400.0,-75862.5,-65415.0
27907,-230.82,-447.01,1192.79,24867.5,-6510.0,17255.0
27935,-325.01,-426.76,1174.37,37642.5,59395.0,79642.5
27964,-368.93,-418.09,1125.21,8750.0,60445.0,112245.0
27993,-372.34,-423.71,1083.85,-37170.0,21035.0,134277.5
28022,-311.59,-439.2,1091.17,-56577.5,38150.0,135590.0
28050,-181.66,-451.64,1146.07,-35875.0,53882.5,79957.5
28079,-26.23,-454.21,1212.44,20492.5,39515.0,-4515.0
28108,98.45,-456.04,1246.6,70577.5,4200.0,-82635.0
28136,159.82,-466.41,1230.0,68022.5,-47967.5,-129990.0
28165,159.33,-479.83,1198.89,12705.0,-49297.5,-143307.5
28193,98.58,-488.0,1186.33,-3097.5,-58852.5,-141680.0
28222,-33.79,-487.02,1185.72,6685.0,-101710.0,-100170.0
28250,-198.13,-473.97,1193.28,10587.5,-55370.0,-12040.0
28279,-322.45,-455.79,1189.99,28490.0,39567.5,65765.0
28307,-388.2,-445.42,1153.75,12967.5,67200.0,115657.5
28336,-403.45,-448.23,1110.93,-29470.0,42105.0,140822.5
28364,-357.46,-459.57,1103.49,-49157.5,22487.5,145757.5
28393,-245.22,-468.6,1134.72,-37922.5,33687.5,108062.5
28421,-89.91,-469.33,1181.69,-11672.5,37187.5,39497.5
28449,58.56,-466.65,1218.66,23992.5,21577.5,-45657.5
28478,154.33,-472.87,1224.27,45745.0,-25270.0,-111405.0
28506,186.17,-487.88,1201.94,26092.5,-34212.5,-147297.5
28535,149.94,-500.57,1176.45,-1732.5,-35017.5,-157465.0
28563,28.06,-505.08,1164.12,-8785.0,-87692.5,-130567.5
28592,-148.35,-499.22,1174.13,-4917.5,-78435.0,-34790.0
28620,-294.26,-487.02,1184.99,22960.0,36242.5,62982.5
28649,-373.93,-478.97,1159.37,25235.0,80430.0,120365.0
28677,-402.84,-483.97,1114.23,-15540.0,48597.5,148225.0
28706,-370.03,-502.03,1100.56,-43610.0,25095.0,164465.0
28734,-253.76,-521.79,1132.28,-41282.5,52482.5,123935.0
28763,-86.38,-529.72,1192.18,-13195.0,41632.5,36505.0
28792,64.17,-529.97,1245.01,40792.5,7980.0,-57067.5
28820,154.45,-536.31,1250.5,70210.0,-26022.5,-123130.0
28849,177.39,-549.0,1213.9,39060.0,-38027.5,-157272.5
28877,121.15,-559.61,1176.08,-9975.0,-42070.0,-156922.5
28906,-19.03,-561.57,1162.66,-27842.5,-75320.0,-102182.5
28934,-191.91,-550.71,1179.86,-17902.5,-65607.5,-6982.5
28963,-327.2,-535.34,1199.87,33880.0,19302.5,71470.0
28991,-398.45,-527.41,1176.2,49472.5,62457.5,122797.5
29020,-411.02,-529.24,1125.57,8645.0,32060.0,150815.0
29049,-352.82,-538.26,1103.0,-29575.0,26057.5,154122.5
29078,-221.06,-544.12,1124.84,-34790.0,38710.0,100450.0
29106,-53.19,-539.73,1175.35,-8995.0,32812.5,18410.0
29135,92.23,-534.48,1219.02,35297.5,7647.5,-73132.5
29164,175.92,-544.36,1223.17,53602.5,-30187.5,-132107.5
29192,195.2,-568.89,1195.84,28595.0,-30677.5,-160702.5
29221,140.42,-588.65,1169.49,-8575.0,-46830.0,-168315.0
29249,2.32,-592.43,1170.22,-23992.5,-97702.5,-125772.5
29278,-186.54,-578.04,1191.7,8575.0,-78960.0,-33442.5
29306,-341.36,-556.32,1199.99,44065.0,45535.0,74777.5
29335,-416.63,-545.71,1167.91,37397.5,117775.0,135975.0
29363,-439.69,-550.34,1115.69,-17710.0,65572.5,162260.0
29392,-411.26,-571.45,1093.24,-56122.5,26460.0,177100.0
29420,-302.07,-597.8,1122.16,-63962.5,59430.0,142117.5
29449,-131.39,-609.88,1193.4,-41177.5,39252.5,54757.5
29478,34.89,-608.78,1273.8,17185.0,6947.5,-52605.0
29507,139.08,-614.76,1307.72,78662.5,-28332.5,-136675.0
29536,167.63,-632.08,1275.39,82197.5,-53900.0,-174615.0
29564,115.9,-645.87,1219.76,14192.5,-58642.5,-176592.5
29593,-23.79,-645.38,1192.43,-32882.5,-78172.5,-118212.5
29621,-208.62,-630.13,1201.21,-10850.0,-69527.5,-17902.5
29650,-357.58,-611.34,1209.63,26757.5,21735.0,78032.5
29678,-427.0,-599.51,1179.5,33670.0,88375.0,131862.5
29707,-427.98,-596.82,1126.79,-15102.5,55860.0,149485.0
29735,-361.73,-601.58,1111.05,-64697.5,23940.0,142625.0
29764,-230.21,-604.39,1155.58,-57137.5,32025.0,88970.0
29792,-69.54,-598.04,1224.64,1032.5,28367.5,1977.5
29821,59.29,-592.31,1264.65,56035.0,-8400.0,-88392.5
29850,120.29,-595.48,1251.84,62457.5,-44730.0,-138250.0
29878,115.9,-601.22,1210.73,19250.0,-41562.5,-152582.5
29907,44.65,-600.73,1176.93,-19670.0,-56997.5,-135485.0
29935,-92.84,-592.43,1174.13,-33775.0,-99365.0,-81760.0
29964,-251.56,-574.99,1203.77,-4777.5,-59272.5,12162.5
29992,-362.34,-558.27,1215.49,46322.5,59535.0,87500.0
30021,-411.38,-552.66,1175.47,31657.5,80150.0,129727.5
30049,-411.14,-559.37,1123.25,-17552.5,18725.0,154455.0
30078,-333.3,-576.82,1112.27,-56997.5,29207.5,155435.0
30106,-175.19,-589.26,1153.51,-54547.5,44607.5,86572.5
30135,2.56,-588.77,1216.71,-1137.5,23555.0,-13527.5
30164,131.52,-590.85,1251.96,64820.0,-17115.0,-105892.5
30193,184.59,-604.39,1237.81,65992.5,-51572.5,-148715.0
30222,173.61,-618.91,1205.36,19092.5,-36172.5,-160387.5
30250,84.67,-625.01,1185.23,-5127.5,-48212.5,-155435.0
30279,-89.06,-615.73,1186.08,-6422.5,-92277.5,-74217.5
30307,-266.94,-594.02,1199.02,11235.0,-3605.0,46357.5
30336,-375.27,-577.91,1183.16,37030.0,80867.5,125457.5
30364,-413.95,-577.79,1134.36,2712.5,56612.5,164290.0
30393,-384.91,-590.97,1107.88,-46165.0,28332.5,166967.5
30421,-286.09,-607.32,1129.35,-51520.0,26827.5,130340.0
30450,-133.1,-615.25,1184.86,-21210.0,11200.0,64575.0
30479,29.16,-613.78,1236.35,25007.5,-6265.0,-26565.0
30507,144.33,-613.66,1250.74,47670.0,-27457.5,-102742.5
30537,191.66,-617.44,1228.66,42105.0,-28437.5,-137200.0
30565,181.66,-616.22,1196.82,9467.5,-11777.5,-139860.0
30594,115.66,-607.32,1177.91,-9100.0,-26180.0,-134837.5
30622,-15.49,-590.11,1174.98,-11637.5,-85872.5,-93782.5
30651,-173.73,-563.15,1186.94,4095.0,-63542.5,-4112.5
30679,-295.97,-538.51,1187.06,39725.0,46515.0,76720.0
30708,-362.22,-529.97,1147.78,29435.0,93590.0,133105.0
30736,-378.44,-539.48,1098.98,-26022.5,56192.5,164185.0
30765,-328.79,-562.18,1092.88,-60427.5,41965.0,172935.0
30793,-202.4,-583.53,1145.58,-45447.5,50592.5,126665.0
30822,-30.01,-594.02,1225.49,16520.0,43522.5,32497.5
30851,116.51,-599.87,1274.53,71715.0,-12215.0,-78382.5
30879,184.59,-605.85,1264.41,72975.0,-73395.0,-135100.0
30908,186.9,-609.15,1221.71,28700.0,-54460.0,-149415.0
30936,128.1,-605.0,1178.76,-14227.5,-33792.5,-151917.5
30965,-5.49,-588.77,1160.71,-52535.0,-102200.0,-110197.5
30993,-176.41,-559.37,1185.11,-32392.5,-111020.0,-11690.0
31022,-309.15,-530.33,1210.36,42892.5,8715.0,81620.0
31051,-372.95,-517.4,1185.6,53882.5,92697.5,134662.5
31080,-377.59,-523.75,1135.45,-5932.5,70035.0,163240.0
31109,-302.56,-546.8,1124.11,-65660.0,47425.0,159792.5
31138,-152.74,-571.81,1173.88,-59360.0,37152.5,86292.5
31167,13.79,-586.82,1246.23,8662.5,30905.0,-7892.5
31195,137.25,-599.39,1285.15,74935.0,14070.0,-95742.5
31224,190.93,-613.42,1269.41,86607.5,-18252.5,-138950.0
31252,191.3,-620.13,1221.22,45850.0,-29452.5,-153055.0
31281,126.76,-617.44,1167.91,-11147.5,-69790.0,-155330.0
31309,-16.1,-605.36,1150.95,-66850.0,-143010.0,-89250.0
31338,-180.68,-580.72,1190.72,-29557.5,-88602.5,6160.0
31366,-301.95,-557.05,1222.2,56262.5,47145.0,85032.5
31395,-360.02,-549.12,1194.75,58240.0,111247.5,142677.5
31423,-342.82,-557.54,1144.12,-13860.0,91927.5,169260.0
31452,-235.46,-576.33,1135.33,-88287.5,52202.5,133262.5
31480,-66.61,-591.82,1197.55,-66937.5,12915.0,42805.0
31508,93.7,-602.19,1268.31,41912.5,12040.0,-57592.5
31537,186.78,-614.76,1278.07,89827.5,-5425.0,-130585.0
31565,203.74,-623.91,1239.4,55615.0,-16170.0,-152495.0
31594,155.43,-624.4,1195.84,3307.5,-25340.0,-149415.0
31622,35.14,-618.3,1174.74,-18217.5,-61565.0,-117005.0
31651,-142.86,-602.19,1180.11,-10780.0,-60147.5,-42507.5
31679,-304.51,-580.96,1189.38,30502.5,-980.0,62317.5
31708,-389.3,-568.89,1165.47,46847.5,55860.0,125667.5
31736,-400.89,-570.47,1121.06,-4322.5,46095.0,154105.0
31765,-336.72,-580.48,1111.05,-47512.5,30607.5,155697.5
31793,-195.81,-587.55,1150.22,-37852.5,24762.5,103810.0
31821,-19.64,-584.26,1207.92,12145.0,27457.5,12197.5
31850,123.1,-577.91,1239.76,62912.5,-3937.5,-78312.5
31878,194.96,-576.33,1222.68,64295.0,-52745.0,-127312.5
31907,199.1,-577.55,1182.91,6965.0,-54250.0,-143710.0
31935,121.76,-577.06,1163.76,-33670.0,-48195.0,-137987.5
31964,-37.33,-567.18,1173.88,-13632.5,-77315.0,-76072.5
31992,-211.18,-545.83,1187.91,13457.5,-15680.0,20107.5
32021,-329.28,-525.09,1172.91,34755.0,51047.5,96250.0
32050,-374.3,-517.4,1125.33,6825.0,55772.5,141487.5
32079,-351.6,-526.06,1087.14,-52675.0,27615.0,154175.0
32107,-267.55,-541.56,1097.63,-68320.0,13947.5,125265.0
32135,-131.76,-552.9,1145.82,-32882.5,18952.5,77105.0
32164,38.92,-559.37,1197.31,7542.5,37922.5,-4375.0
32193,179.95,-563.88,1225.98,46077.5,3465.0,-100292.5
32222,240.83,-571.57,1214.27,57155.0,-44607.5,-151410.0
32250,228.26,-580.23,1175.96,15942.5,-37607.5,-164150.0
32279,136.15,-582.18,1150.7,-27702.5,-40250.0,-146702.5
32307,-28.06,-572.42,1157.9,-18217.5,-68547.5,-77490.0
32336,-203.5,-551.32,1174.13,17342.5,-8435.0,20965.0
32365,-323.06,-532.77,1161.44,38745.0,56577.5,101010.0
32394,-377.22,-530.21,1121.3,7490.0,56245.0,141505.0
32423,-380.88,-546.93,1093.73,-30712.5,29697.5,166897.5
32451,-306.95,-576.94,1107.76,-50050.0,46375.0,170485.0
32480,-146.89,-601.22,1162.17,-36137.5,60462.5,94517.5
32508,35.5,-609.27,1233.3,11602.5,21105.0,-15242.5
32537,171.29,-614.15,1276.0,72345.0,-17972.5,-105770.0
32565,236.07,-627.45,1257.45,89075.0,-57820.0,-156082.5
32594,228.26,-641.6,1205.6,24640.0,-52465.0,-166600.0
32622,142.13,-647.7,1168.27,-28910.0,-51922.5,-153790.0
32651,-34.04,-642.82,1169.74,-38692.5,-106732.5,-91787.5
32679,-236.44,-627.32,1209.14,-1295.0,-37905.0,24185.0
32708,-370.51,-613.54,1218.9,64400.0,69720.0,106802.5
32737,-417.85,-611.71,1162.9,29452.5,61775.0,154472.5
32765,-384.06,-622.32,1120.57,-47950.0,42420.0,169750.0
32794,-258.15,-636.6,1146.8,-57715.0,58012.5,142222.5
32822,-61.0,-642.21,1211.95,-16082.5,40477.5,49822.5
32851,121.76,-640.74,1266.85,32007.5,2117.5,-64925.0
32879,222.53,-646.11,1279.9,54705.0,-46270.0,-134365.0
32908,244.0,-659.04,1255.99,31780.0,-41387.5,-157027.5
32936,201.3,-666.24,1233.42,3255.0,-33600.0,-158270.0
32965,88.08,-662.83,1222.2,14647.5,-54442.5,-133700.0
32993,-87.96,-646.11,1207.8,5670.0,-44940.0,-60935.0
33022,-259.13,-617.44,1198.16,490.0,18322.5,37450.0
33051,-367.83,-593.77,1174.98,21840.0,49175.0,101290.0
33079,-422.85,-587.8,1133.62,-10027.5,49227.5,138740.0
33108,-435.54,-602.31,1105.81,-32550.0,39830.0,164500.0
33136,-369.66,-631.23,1112.4,-52535.0,65467.5,170800.0
33165,-210.33,-652.7,1169.98,-57487.5,48352.5,104160.0
33193,-20.37,-655.26,1260.87,-4165.0,15102.5,892.5
33222,126.51,-653.19,1325.9,63700.0,-14945.0,-90895.0
33250,198.25,-662.34,1325.65,86345.0,-53025.0,-143132.5
33279,202.76,-674.17,1282.46,45692.5,-43995.0,-158655.0
33307,141.4,-673.2,1237.57,11007.5,-65992.5,-150552.5
33336,3.42,-659.53,1210.24,-11007.5,-78522.5,-109130.0
33365,-183.85,-636.72,1203.04,-14420.0,-37345.0,-19915.0
33393,-338.67,-610.49,1197.31,7717.5,31990.0,67830.0
33422,-420.9,-593.65,1162.66,14910.0,53427.5,115535.0
33450,-454.45,-593.53,1115.32,-27772.5,40757.5,142922.5
33479,-429.44,-609.76,1102.39,-53497.5,53130.0,166145.0
33507,-313.3,-629.4,1144.36,-64610.0,83772.5,135940.0
33536,-133.47,-636.84,1232.69,-29662.5,50382.5,46427.5
33564,32.09,-636.23,1322.48,35122.5,8820.0,-56700.0
33593,131.76,-642.33,1359.93,86677.5,-41475.0,-127470.0
33621,162.5,-657.09,1332.73,81882.5,-54460.0,-158725.0
33649,129.93,-667.58,1277.71,23012.5,-59535.0,-161665.0
33678,32.7,-666.0,1243.79,-16450.0,-86590.0,-133560.0
33706,-123.59,-655.14,1236.84,-7595.0,-74480.0,-70840.0
33735,-292.68,-636.11,1235.62,9187.5,-8907.5,18952.5
33763,-413.34,-616.95,1210.73,32550.0,40722.5,87990.0
33792,-474.95,-611.71,1157.05,-140.0,48072.5,132667.5
33820,-485.19,-623.66,1118.13,-43207.5,37870.0,159845.0
33849,-416.51,-645.87,1126.06,-61950.0,62947.5,166897.5
33877,-261.81,-657.58,1184.5,-58152.5,61320.0,107310.0
33906,-74.05,-649.04,1269.53,-5757.5,20737.5,13597.5
33935,86.62,-637.82,1328.58,58642.5,-13335.0,-82180.0
33963,180.32,-643.79,1323.58,75932.5,-61460.0,-146370.0
33992,195.69,-661.48,1282.22,21280.0,-59045.0,-169802.5
34020,136.64,-676.86,1252.33,-8977.5,-55930.0,-158445.0
34049,-1.95,-688.2,1236.47,-15120.0,-80290.0,-117810.0
34077,-188.37,-687.84,1248.43,-21595.0,-49140.0,-22540.0
34106,-341.36,-675.51,1261.24,33670.0,36260.0,70087.5
34134,-422.49,-667.46,1223.42,36400.0,55300.0,125632.5
34163,-444.45,-672.22,1168.76,-12267.5,44485.0,158515.0
34191,-395.52,-687.96,1146.92,-47617.5,51082.5,176172.5
34220,-257.42,-699.3,1176.2,-59430.0,52430.0,134470.0
34248,-60.02,-694.42,1246.47,-25602.5,36960.0,41860.0
34277,120.05,-683.93,1315.53,41317.5,13037.5,-73885.0
34306,219.72,-687.59,1333.7,89565.0,-30012.5,-143780.0
34334,237.05,-704.31,1291.74,61652.5,-30852.5,-166775.0
34363,176.17,-720.29,1232.08,1277.5,-52990.0,-162697.5
34391,26.6,-728.34,1209.02,-35700.0,-97562.5,-105700.0
34420,-159.82,-720.04,1227.44,-12372.5,-34720.0,-7892.5
34448,-299.88,-700.04,1232.57,33792.5,41685.0,71627.5
34477,-374.17,-684.18,1194.38,25550.0,52780.0,116847.5
34505,-402.84,-681.74,1148.51,-16590.0,38675.0,146090.0
34534,-384.54,-691.62,1128.99,-40950.0,49140.0,160860.0
34562,-299.14,-701.5,1142.41,-50680.0,61215.0,143237.5
34591,-151.89,-694.3,1189.5,-39217.5,33967.5,75512.5
34620,11.59,-670.63,1255.62,2432.5,11987.5,-16625.0
34648,134.2,-652.58,1301.98,49367.5,-17850.0,-95182.5
34677,193.25,-657.09,1307.72,61355.0,-36697.5,-138705.0
34705,197.88,-675.03,1290.15,41772.5,-23467.5,-158462.5
34734,143.96,-688.93,1262.21,39637.5,-45342.5,-162942.5
34762,3.17,-691.01,1222.68,19057.5,-85715.0,-118842.5
34791,-183.24,-679.05,1199.14,-13912.5,-31850.0,-11620.0
34819,-323.67,-660.26,1189.5,3272.5,28262.5,70997.5
34848,-398.21,-647.94,1160.22,3587.5,35017.5,113575.0
34877,-426.88,-646.36,1127.77,-22872.5,30957.5,137340.0
34906,-407.85,-652.46,1117.4,-34860.0,43925.0,152250.0
34934,-318.66,-656.12,1137.16,-40932.5,58082.5,132527.5
34962,-163.97,-646.11,1190.96,-22750.0,40670.0,66535.0
34991,1.34,-625.98,1256.97,16292.5,8312.5,-25777.5
35020,119.8,-612.2,1293.69,54442.5,-27492.5,-100100.0
35049,177.14,-613.29,1280.76,61197.5,-40180.0,-143447.5
35077,171.78,-625.49,1238.67,33057.5,-42682.5,-166022.5
35106,73.08,-639.52,1204.38,3220.0,-62335.0,-148750.0
35134,-105.9,-643.43,1196.94,-7507.5,-62510.0,-62055.0
35163,-274.26,-633.06,1195.11,7175.0,21105.0,33215.0
35192,-373.56,-615.73,1170.59,13265.0,47425.0,91052.5
35221,-411.51,-601.95,1133.14,-8505.0,40600.0,119052.5
35250,-407.72,-594.14,1111.91,-32550.0,40932.5,128835.0
35278,-361.12,-587.31,1117.89,-34580.0,36277.5,126857.5
35307,-269.38,-573.03,1145.09,-25970.0,26600.0,99137.5
35335,-136.76,-549.85,1184.99,-3500.0,27877.5,46707.5
35364,-5.12,-526.43,1218.29,20090.0,-822.5,-38307.5
35393,77.47,-514.47,1235.37,29855.0,-36225.0,-90685.0
35422,110.29,-516.79,1236.1,35420.0,-25760.0,-120907.5
35450,100.16,-522.89,1222.2,29680.0,-24027.5,-133087.5
35479,42.58,-523.62,1204.51,22242.5,-40687.5,-128975.0
35507,-75.4,-515.82,1184.99,15732.5,-57960.0,-92172.5
35536,-222.41,-500.93,1167.78,5407.5,-27825.0,-13335.0
35565,-337.45,-481.41,1148.02,8837.5,23835.0,50977.5
35593,-403.82,-464.94,1113.37,-455.0,30065.0,87622.5
35622,-439.44,-456.89,1080.43,-23835.0,19687.5,107502.5
35650,-452.01,-457.13,1064.08,-28700.0,24045.0,127540.0
35679,-430.42,-462.38,1057.86,-32130.0,40600.0,134627.5
35707,-360.75,-466.28,1066.04,-40827.5,28402.5,119577.5
35736,-249.37,-462.99,1102.03,-33687.5,15645.0,70612.5
35764,-130.3,-454.94,1149.97,-2485.0,5495.0,13055.0
35793,-33.06,-449.08,1187.3,21175.0,-4375.0,-36417.5
35822,35.38,-447.5,1203.77,39462.5,-12057.5,-75092.5
35851,77.35,-447.86,1197.06,41177.5,-17237.5,-101062.5
35880,96.75,-447.37,1177.18,31587.5,-23047.5,-116532.5
35908,93.45,-446.64,1155.71,19320.0,-35892.5,-130987.5
35937,45.99,-447.5,1140.7,5372.5,-59937.5,-138250.0
35965,-67.22,-445.79,1133.38,-385.0,-65817.5,-102707.5
35994,-213.38,-435.3,1133.26,-4060.0,-31115.0,-28070.0
36022,-334.16,-417.48,1132.16,6335.0,18375.0,39970.0
36051,-407.97,-401.5,1113.74,11480.0,38062.5,82967.5
36079,-446.52,-393.94,1086.29,-7770.0,36190.0,108237.5
36108,-461.89,-396.13,1070.79,-16065.0,27877.5,125002.5
36136,-443.84,-406.02,1068.96,-14280.0,37957.5,137672.5
36165,-371.37,-415.29,1077.75,-19127.5,46515.0,123322.5
36193,-247.29,-417.73,1108.98,-23642.5,15452.5,73885.0
36221,-107.36,-415.9,1162.42,-735.0,8732.5,7717.5
36250,6.95,-416.26,1205.73,29802.5,1085.0,-53812.5
36279,81.13,-423.22,1218.05,45815.0,-15137.5,-95235.0
36308,123.46,-434.44,1203.29,41702.5,-11007.5,-121747.5
36336,137.13,-444.81,1177.42,22662.5,-23940.0,-142100.0
36365,107.6,-455.3,1163.39,7245.0,-45132.5,-150657.5
36393,19.15,-466.53,1159.61,11427.5,-51817.5,-141697.5
36422,-133.71,-468.72,1145.58,8662.5,-68057.5,-94885.0
36450,-309.15,-454.94,1129.23,-2380.0,-32725.0,-577.5
36479,-436.39,-436.27,1109.22,10360.0,36505.0,80797.5
36508,-500.57,-428.46,1070.06,-8487.5,47232.5,124880.0
36536,-529.97,-435.78,1040.66,-37205.0,17640.0,144952.5
36565,-534.48,-458.23,1037.49,-29715.0,17535.0,160580.0
36593,-488.98,-489.83,1044.81,-30975.0,49770.0,165340.0
36622,-387.47,-517.4,1062.74,-41615.0,32042.5,127960.0
36650,-252.3,-533.38,1106.3,-40687.5,1417.5,72765.0
36679,-108.95,-540.09,1163.76,-5337.5,22767.5,4007.5
36708,8.05,-544.49,1203.65,32865.0,10465.0,-64260.0
36737,79.06,-553.39,1213.17,52307.5,-7490.0,-109462.5
36766,113.34,-568.28,1199.14,47792.5,2205.0,-133735.0
36795,114.44,-585.72,1175.59,37572.5,-13107.5,-156642.5
36823,64.66,-599.14,1153.02,24640.0,-54565.0,-165252.5
36852,-41.24,-601.46,1132.4,12722.5,-58380.0,-136080.0
36881,-185.32,-586.33,1118.62,227.5,-43610.0,-68862.5
36909,-326.47,-555.59,1107.27,7052.5,-2380.0,6720.0
36938,-432.25,-525.33,1087.51,9940.0,30065.0,71540.0
36966,-492.88,-507.52,1067.38,1487.5,36855.0,110792.5
36995,-517.16,-499.96,1048.71,-7525.0,21507.5,121065.0
37023,-526.8,-502.4,1028.46,-18042.5,15715.0,132685.0
37052,-511.18,-516.67,1016.75,-34422.5,40040.0,151060.0
37080,-443.1,-534.73,1024.56,-48037.5,52377.5,138827.5
37109,-330.38,-545.95,1058.84,-50015.0,16362.5,86380.0
37137,-202.4,-548.15,1117.52,-24937.5,717.5,26635.0
37166,-85.28,-545.34,1170.96,15925.0,10412.5,-34755.0
37195,0.0,-544.49,1194.87,42122.5,-8627.5,-85505.0
37223,44.53,-552.42,1190.35,47320.0,-20790.0,-116935.0
37252,49.17,-566.69,1173.64,32427.5,-26897.5,-135415.0
37280,14.03,-575.6,1165.1,21525.0,-55947.5,-140612.5
37309,-56.36,-572.42,1159.24,19337.5,-52675.0,-126420.0
37337,-153.96,-555.47,1137.04,12005.0,-34107.5,-96495.0
37366,-274.01,-525.09,1110.2,-8662.5,-44292.5,-40127.5
37394,-386.37,-488.37,1098.12,-2957.5,-3220.0,34142.5
37423,-457.87,-458.72,1078.72,11637.5,63682.5,84665.0
37452,-494.71,-442.62,1043.47,-13597.5,58432.5,111877.5
37481,-512.4,-440.66,1021.87,-32427.5,19337.5,125370.0
37509,-515.08,-452.13,1017.24,-28700.0,14857.5,132982.5
37537,-491.05,-473.85,1018.94,-38937.5,36365.0,141942.5
37566,-420.9,-495.08,1036.51,-55317.5,35507.5,125125.0
37594,-312.2,-506.54,1081.65,-37292.5,-13580.0,72450.0
37623,-199.71,-507.76,1136.55,2957.5,-19635.0,12775.0
37651,-104.07,-503.62,1171.93,34772.5,-927.5,-32690.0
37680,-30.62,-499.47,1184.74,45290.0,-11935.0,-71890.0
37708,17.57,-500.32,1184.38,50312.5,-25235.0,-102147.5
37737,39.41,-506.54,1167.54,48685.0,-21770.0,-126175.0
37765,28.43,-513.13,1138.02,30082.5,-34860.0,-136745.0
37794,-20.98,-513.25,1119.96,1417.5,-47582.5,-122272.5
37823,-98.7,-503.74,1119.72,-4550.0,-29592.5,-94990.0
37851,-197.76,-483.12,1119.59,3657.5,-26670.0,-63805.0
37880,-304.76,-451.03,1111.18,14227.5,-17885.0,-11165.0
37908,-390.4,-417.0,1086.04,18235.0,20755.0,42052.5
37937,-444.57,-391.13,1046.15,-4865.0,38150.0,79607.5
37965,-475.07,-377.47,1012.36,-31867.5,19407.5,105577.5
37994,-489.59,-377.83,994.54,-35420.0,11147.5,119157.5
38022,-486.66,-393.57,986.61,-37660.0,19600.0,131215.0
38051,-442.86,-419.31,1000.28,-52325.0,51275.0,133770.0
38079,-339.16,-440.3,1049.08,-42717.5,45552.5,101692.5
38108,-195.44,-448.47,1124.35,-15540.0,7822.5,34282.5
38137,-59.17,-449.69,1192.55,34825.0,-6685.0,-43225.0
38165,36.11,-454.69,1218.54,67392.5,-20650.0,-98192.5
38194,82.72,-466.65,1207.43,59832.5,-35875.0,-134627.5
38222,81.25,-477.02,1183.64,40355.0,-34510.0,-146475.0
38251,39.04,-480.56,1154.49,29347.5,-42980.0,-136132.5
38279,-40.87,-478.73,1130.7,-3762.5,-55230.0,-110232.5
38308,-163.6,-472.14,1119.47,-13002.5,-60777.5,-66500.0
38336,-303.17,-459.7,1120.94,-8015.0,-40110.0,8295.0
38365,-407.97,-445.79,1115.2,19250.0,34247.5,75057.5
38394,-463.84,-439.08,1078.85,7227.5,55195.0,114432.5
38423,-483.85,-443.35,1038.22,-27212.5,31727.5,135940.0
38452,-466.53,-458.96,1025.53,-43645.0,32550.0,147315.0
38480,-400.65,-479.22,1046.39,-47092.5,48090.0,139177.5
38509,-284.02,-494.47,1100.44,-32707.5,46410.0,94360.0
38537,-146.4,-498.13,1169.61,11847.5,20160.0,18830.0
38566,-26.23,-494.22,1221.95,45902.5,-7735.0,-46112.5
38594,60.15,-492.64,1236.59,71435.0,-20947.5,-95445.0
38623,105.9,-498.37,1212.56,59850.0,-44327.5,-129990.0
38651,108.09,-508.13,1172.91,21402.5,-48212.5,-148295.0
38680,56.97,-514.23,1144.36,-15872.5,-67182.5,-143220.0
38708,-46.6,-510.69,1145.21,-27772.5,-68040.0,-98332.5
38736,-173.73,-496.3,1163.03,-4427.5,-24990.0,-44537.5
38765,-290.6,-472.14,1167.78,20177.5,4952.5,9957.5
38793,-375.39,-446.4,1143.51,27737.5,36627.5,59237.5
38822,-427.49,-431.15,1093.97,-3552.5,59202.5,97685.0
38850,-453.84,-431.39,1052.74,-50540.0,29522.5,121065.0
38879,-452.5,-444.57,1042.25,-45552.5,12897.5,137217.5
38907,-403.82,-464.33,1050.91,-43470.0,45622.5,136675.0
38936,-298.53,-480.44,1086.29,-50172.5,26617.5,97790.0
38964,-164.09,-486.78,1148.14,-25830.0,13632.5,37922.5
38993,-36.36,-487.88,1207.92,13230.0,14927.5,-28927.5
39022,53.56,-492.88,1248.18,55597.5,-26477.5,-89722.5
39050,92.23,-503.49,1250.5,77647.5,-35560.0,-122972.5
39079,91.38,-509.72,1216.83,56332.5,-24990.0,-133157.5
39107,50.87,-507.52,1166.69,25707.5,-48737.5,-132055.0
39136,-31.11,-497.76,1130.21,-18112.5,-59990.0,-100362.5
39164,-139.2,-480.68,1121.42,-22050.0,-41370.0,-52605.0
39193,-248.51,-458.23,1124.11,-4410.0,-18847.5,3710.0
39222,-336.35,-434.93,1117.03,11777.5,25112.5,53112.5
39251,-394.43,-418.22,1093.24,-1347.5,27002.5,90615.0
39280,-422.73,-411.87,1070.79,-12477.5,4007.5,112472.5
39308,-422.36,-416.51,1058.72,-16485.0,14945.0,127435.0
39337,-386.86,-428.95,1057.01,-22120.0,30310.0,129675.0
39365,-310.98,-441.88,1074.09,-28052.5,26600.0,107012.5
39394,-202.52,-448.47,1113.01,-13632.5,21035.0,64207.5
39422,-78.57,-446.89,1157.05,11322.5,19075.0,9590.0
39451,31.48,-442.13,1184.62,34107.5,-1260.0,-51870.0
39480,103.09,-442.86,1183.64,45010.0,-25690.0,-95952.5
39509,133.35,-450.18,1160.95,28735.0,-17517.5,-120995.0
39537,124.44,-453.6,1130.94,14210.0,-8067.5,-127190.0
39566,72.22,-450.06,1106.17,1575.0,-29242.5,-115342.5
39595,-25.5,-440.66,1094.34,-5775.0,-30397.5,-81445.0
39623,-150.55,-426.02,1091.29,-8890.0,-20685.0,-28210.0
39652,-263.28,-407.24,1088.73,-175.0,-6580.0,25725.0
39680,-339.04,-390.16,1070.43,9695.0,7945.0,65537.5
39709,-381.86,-380.64,1036.63,-6580.0,3150.0,94990.0
39737,-394.79,-380.15,1011.01,-20177.5,2065.0,115062.5
39766,-377.35,-387.23,999.67,-22820.0,15365.0,120627.5
39794,-323.79,-396.62,1005.28,-30782.5,22347.5,111545.0
39823,-235.7,-401.75,1034.19,-24272.5,15487.5,77752.5
39851,-131.03,-399.43,1075.43,-5337.5,11200.0,34790.0
39880,-25.74,-392.35,1113.62,12022.5,6545.0,-11602.5
39909,61.49,-387.23,1137.41,27982.5,-11445.0,-58572.5
39937,115.17,-389.67,1143.14,30012.5,-15347.5,-93222.5
39966,136.52,-396.13,1137.53,28105.0,-2520.0,-110845.0
39994,129.44,-400.28,1123.01,33180.0,0.0,-117792.5
40023,87.23,-400.89,1102.03,25077.5,-15557.5,-113347.5
40051,3.66,-396.5,1082.87,15277.5,-18952.5,-91542.5
40080,-112.85,-384.42,1064.82,5337.5,-25952.5,-43155.0
40108,-228.87,-367.46,1048.83,-3412.5,-10657.5,20405.0
40137,-312.81,-352.7,1029.07,-2572.5,7332.5,67497.5
40166,-365.51,-346.97,1001.86,-15785.0,-210.0,95235.0
40195,-395.04,-352.95,979.17,-22295.0,-2117.5,119700.0
40224,-388.69,-369.9,966.0,-26652.5,18847.5,138635.0
40252,-323.06,-390.16,973.68,-39550.0,29697.5,126857.5
40281,-201.67,-403.45,1018.94,-37205.0,9082.5,81952.5
40309,-54.17,-406.75,1090.68,-1382.5,13702.5,19407.5
40338,76.25,-406.87,1147.29,40372.5,-1785.0,-51922.5
40366,165.8,-414.43,1165.22,59745.0,-17132.5,-102217.5
40395,223.26,-434.08,1150.95,54197.5,-1977.5,-142852.5
40423,237.29,-462.14,1117.4,31815.0,-3850.0,-172112.5
40452,179.46,-491.42,1094.22,3937.5,-26180.0,-170607.5
40480,48.68,-509.96,1094.1,14927.5,-31902.5,-133367.5
40509,-114.68,-509.11,1084.58,32515.0,3920.0,-57120.0
40538,-255.1,-489.95,1053.35,16625.0,25532.5,23117.5
40566,-349.29,-466.04,1014.19,3395.0,11812.5,77315.0
40595,-406.26,-452.38,980.39,-17377.5,1645.0,117057.5
40623,-427.0,-452.5,962.82,-26512.5,7630.0,141417.5
40652,-411.38,-460.43,961.6,-27475.0,22487.5,148715.0
40680,-359.17,-468.97,972.71,-27370.0,29645.0,142712.5
40709,-266.08,-472.02,999.42,-29347.5,29907.5,113540.0
40737,-131.15,-467.02,1047.98,-12775.0,44747.5,52045.0
40766,6.59,-459.45,1101.9,23012.5,32952.5,-33810.0
40795,100.41,-458.23,1135.58,45517.5,4147.5,-92102.5
40824,152.5,-470.68,1143.38,49297.5,-4602.5,-132965.0
40853,163.85,-492.03,1138.99,38237.5,-4497.5,-158917.5
40881,136.15,-512.89,1131.18,39042.5,-13685.0,-162312.5
40910,59.41,-524.36,1115.81,39007.5,-52325.0,-149467.5
40938,-67.1,-521.06,1099.71,22820.0,-46882.5,-93327.5
40967,-208.74,-504.23,1078.72,25025.0,-21035.0,-31360.0
40995,-331.11,-478.48,1045.3,17622.5,-10832.5,28315.0
41024,-413.82,-453.11,1002.96,2205.0,18585.0,73465.0
41053,-462.99,-435.91,962.09,-29225.0,18427.5,102182.5
41082,-491.42,-431.15,939.52,-41265.0,5162.5,123060.0
41111,-492.27,-439.69,935.37,-43452.5,19915.0,142152.5
41139,-439.93,-453.35,952.21,-58450.0,43872.5,143045.0
41168,-330.62,-461.4,998.69,-61635.0,28122.5,100817.5
41196,-196.18,-461.04,1066.89,-29207.5,5320.0,37222.5
41225,-72.1,-457.38,1127.65,17885.0,10185.0,-24867.5
41253,20.5,-458.72,1155.46,49437.5,3587.5,-76895.0
41282,79.54,-469.33,1153.14,47355.0,-7437.5,-111247.5
41310,100.77,-485.8,1136.8,33617.5,-15767.5,-140315.0
41339,62.71,-500.08,1118.13,20212.5,-60900.0,-152950.0
41367,-39.28,-504.71,1112.64,-2240.0,-87850.0,-130410.0
41396,-182.76,-494.34,1122.03,13160.0,-51502.5,-72695.0
41424,-323.54,-471.41,1119.23,41265.0,17850.0,4795.0
41452,-421.75,-444.81,1078.6,43032.5,65922.5,69510.0
41481,-477.75,-426.02,1007.48,-7227.5,56280.0,112805.0
41509,-506.79,-427.61,955.38,-76615.0,15452.5,137060.0
41538,-505.32,-447.98,963.92,-75740.0,22855.0,146002.5
41566,-457.01,-474.34,1003.57,-40687.5,63087.5,143115.0
41595,-349.04,-496.78,1050.66,-55527.5,53760.0,101762.5
41623,-205.94,-508.5,1125.33,-40687.5,14962.5,30677.5
41652,-75.52,-516.79,1201.21,35035.0,14612.5,-45937.5
41681,2.32,-534.36,1230.86,83072.5,-17902.5,-104510.0
41710,21.96,-556.56,1223.42,71785.0,-29855.0,-125755.0
41739,3.66,-566.57,1204.63,63630.0,-35122.5,-135712.5
41767,-43.43,-560.71,1168.15,61582.5,-58992.5,-138197.5
41796,-137.62,-548.15,1101.42,19477.5,-65817.5,-125160.0
41824,-282.31,-531.07,1062.38,-64417.5,-74322.5,-44537.5
41853,-415.41,-508.98,1086.65,-12530.0,-4007.5,37222.5
41881,-495.56,-487.88,1089.95,41160.0,54267.5,83422.5
41910,-537.04,-474.46,1053.96,-367.5,41580.0,112770.0
41938,-554.61,-472.38,1032.73,-24972.5,20807.5,129692.5
41967,-544.73,-483.24,1032.61,-28017.5,28700.0,143745.0
41995,-481.29,-498.98,1051.15,-35035.0,42402.5,143727.5
42024,-355.51,-507.52,1093.0,-31062.5,25952.5,95095.0
42053,-203.25,-507.28,1149.97,-2240.0,5722.5,18952.5
42081,-70.76,-506.06,1196.33,35210.0,-122.5,-54670.0
42110,15.62,-511.55,1206.82,55580.0,-23380.0,-109550.0
42138,51.73,-522.65,1185.84,41965.0,-31552.5,-141120.0
42167,37.33,-530.58,1156.44,17920.0,-39847.5,-153702.5
42195,-32.82,-531.43,1138.99,-1137.5,-63560.0,-142572.5
42224,-163.48,-523.75,1130.21,-192.5,-61740.0,-103827.5
42252,-325.13,-503.13,1125.08,-857.5,-35437.5,-19950.0
42281,-455.67,-476.78,1115.08,19582.5,29715.0,58992.5
42310,-527.65,-459.33,1080.31,12005.0,63420.0,112595.0
42338,-551.2,-456.28,1042.73,-25567.5,49000.0,136447.5
42367,-538.75,-465.06,1030.78,-39620.0,27475.0,140805.0
42395,-484.58,-480.44,1048.96,-46112.5,34772.5,139527.5
42424,-379.05,-493.86,1094.83,-41247.5,26880.0,105980.0
42452,-239.36,-498.25,1156.8,-16380.0,1575.0,42840.0
42481,-108.34,-494.1,1212.19,23712.5,-7262.5,-31062.5
42509,-17.81,-489.71,1230.25,63840.0,-33862.5,-88917.5
42538,30.74,-489.95,1209.02,56245.0,-41947.5,-128310.0
42566,45.14,-492.88,1167.78,34720.0,-29732.5,-152180.0
42595,9.39,-496.91,1129.48,-6177.5,-48492.5,-153667.5
42624,-89.91,-498.74,1120.81,-43715.0,-68092.5,-118335.0
42653,-233.63,-490.32,1143.99,-20317.5,-70630.0,-55527.5
42681,-364.66,-469.21,1167.3,24727.5,-262.5,28070.0
42709,-442.01,-447.74,1155.83,39690.0,65660.0,80780.0
42738,-477.63,-433.83,1118.98,10010.0,58537.5,112140.0
42766,-485.19,-428.34,1092.14,-14297.5,32917.5,126945.0
42795,-449.81,-429.81,1088.48,-22837.5,49840.0,138705.0
42823,-348.19,-429.81,1112.03,-33075.0,62002.5,109865.0
42852,-203.62,-419.56,1160.22,-12495.0,26232.5,37397.5
42880,-74.18,-402.11,1206.34,23030.0,8820.0,-36295.0
42909,8.54,-389.91,1217.19,52465.0,-6335.0,-82092.5
42938,46.36,-390.28,1187.18,42682.5,-18025.0,-119542.5
42966,25.01,-399.06,1147.04,3902.5,-46620.0,-142712.5
42995,-63.44,-402.84,1134.6,-16012.5,-81497.5,-114257.5
43023,-191.17,-392.35,1142.9,8312.5,-46305.0,-60970.0
43052,-315.13,-370.51,1138.75,18585.0,14892.5,12355.0
43080,-396.99,-345.75,1114.84,9432.5,45377.5,65572.5
43109,-439.69,-327.94,1078.85,-8557.5,25742.5,90912.5
43137,-460.18,-321.1,1049.93,-27142.5,2012.5,105770.0
43166,-454.45,-323.06,1039.2,-26495.0,11655.0,118142.5
43194,-407.11,-327.69,1041.64,-29837.5,34212.5,113312.5
43223,-323.18,-327.94,1058.59,-30992.5,13072.5,78207.5
43252,-224.48,-322.45,1093.12,-20055.0,-10885.0,36697.5
43280,-122.37,-317.32,1135.82,1645.0,-3360.0,-10465.0
43309,-35.01,-317.69,1172.91,25375.0,-16975.0,-62457.5
43337,20.98,-323.3,1191.7,49280.0,-22015.0,-100730.0
43366,44.53,-331.23,1178.4,52885.0,-18865.0,-134435.0
43394,19.03,-335.62,1134.84,27300.0,-57102.5,-149887.5
43423,-62.95,-329.4,1100.93,-20090.0,-74375.0,-113680.0
43451,-188.49,-312.2,1094.22,-15697.5,-47547.5,-57575.0
43480,-321.35,-291.09,1084.82,1715.0,-13982.5,24552.5
43509,-413.34,-276.94,1061.16,-10080.0,40285.0,86870.0
43538,-459.21,-276.7,1039.07,-26687.5,43225.0,119595.0
43566,-463.11,-290.85,1033.58,-31657.5,24815.0,139632.5
43594,-407.72,-312.69,1051.76,-35052.5,36855.0,135047.5
43623,-301.58,-330.01,1088.0,-26197.5,11060.0,95987.5
43651,-164.7,-339.4,1132.53,-6720.0,-3202.5,36400.0
43680,-33.06,-343.92,1169.74,26880.0,4165.0,-46532.5
43708,51.48,-348.55,1178.03,44660.0,-25147.5,-96267.5
43737,90.4,-355.39,1160.46,33775.0,-26687.5,-127242.5
43765,82.47,-361.73,1133.62,18952.5,-23607.5,-142765.0
43794,15.25,-362.22,1117.28,8417.5,-46935.0,-124110.0
43823,-102.48,-352.95,1111.54,16835.0,-26460.0,-71697.5
43852,-239.49,-335.5,1098.85,14402.5,3867.5,-4252.5
43881,-353.07,-315.25,1077.38,9712.5,20055.0,61372.5
43909,-421.63,-304.63,1047.98,2642.5,36557.5,106190.0
43938,-450.67,-310.86,1019.68,-24255.0,39060.0,136062.5
43966,-422.36,-330.5,1020.65,-48265.0,38167.5,153545.0
43995,-325.74,-350.75,1059.94,-40617.5,21245.0,115622.5
44023,-188.0,-361.0,1117.76,-8540.0,5460.0,57872.5
44052,-38.06,-363.32,1163.64,30660.0,12110.0,-17535.0
44080,77.84,-364.78,1166.08,54127.5,-16240.0,-95025.0
44109,138.59,-372.95,1128.26,15750.0,-42385.0,-143290.0
44137,138.35,-389.18,1099.71,-36645.0,-57505.0,-165410.0
44166,69.54,-401.38,1115.57,-39025.0,-50487.5,-139772.5
44195,-56.61,-399.18,1146.43,4690.0,-42490.0,-95427.5
44223,-208.86,-382.84,1159.85,26145.0,297.5,-11217.5
44252,-330.74,-361.36,1145.7,34947.5,47565.0,62737.5
44280,-399.92,-348.43,1102.27,16590.0,54425.0,111265.0
44309,-428.22,-352.34,1057.74,-21437.5,28997.5,135170.0
44337,-411.87,-372.22,1046.27,-41195.0,15155.0,153020.0
44366,-326.47,-396.74,1076.04,-35297.5,31902.5,131845.0
44394,-179.58,-410.65,1127.77,-12827.5,28910.0,63542.5
44423,-22.33,-412.12,1173.4,18725.0,7227.5,-21157.5
44452,97.84,-411.75,1188.04,38342.5,-18270.0,-91752.5
44481,159.82,-420.53,1165.1,25252.5,-34930.0,-143220.0
44510,155.79,-437.37,1134.23,-13580.0,-41300.0,-163012.5
44538,76.86,-450.42,1125.57,-24885.0,-65205.0,-147245.0
44567,-65.76,-448.96,1139.11,-11340.0,-67690.0,-82162.5
44595,-221.92,-431.64,1150.95,12267.5,525.0,5355.0
44624,-337.33,-409.92,1138.02,19267.5,47670.0,78802.5
44652,-397.48,-398.94,1108.98,7105.0,52675.0,119087.5
44681,-411.26,-403.45,1091.9,-11777.5,42210.0,136605.0
44709,-379.54,-416.51,1102.03,-17605.0,45097.5,137112.5
44738,-291.09,-428.22,1130.33,-14000.0,45115.0,113015.0
44766,-152.13,-430.9,1165.22,-4532.5,15085.0,52342.5
44795,-8.05,-425.41,1193.16,13947.5,-12460.0,-23747.5
44824,93.21,-420.66,1199.02,22487.5,-36837.5,-85732.5
44852,136.15,-423.83,1187.91,10605.0,-50120.0,-118492.5
44881,130.78,-432.61,1177.3,-7227.5,-35945.0,-133682.5
44909,68.56,-435.78,1172.91,-13195.0,-59272.5,-132737.5
44938,-52.7,-424.07,1177.79,-11305.0,-68635.0,-85820.0
44966,-192.52,-398.57,1188.04,8137.5,-21437.5,-11690.0
44995,-304.02,-372.71,1178.64,29732.5,35140.0,62090.0
45023,-366.85,-359.29,1139.72,12810.0,46252.5,108920.0
45052,-389.42,-361.85,1106.05,-20020.0,22645.0,133595.0
45080,-365.02,-376.74,1107.15,-20562.5,17605.0,143727.5
45109,-276.45,-396.5,1125.69,-9310.0,23520.0,123427.5
45138,-136.27,-410.29,1149.97,-9625.0,1347.5,61530.0
45166,11.83,-414.19,1176.57,8732.5,8102.5,-14035.0
45195,125.05,-415.65,1182.18,28192.5,6790.0,-79135.0
45223,185.68,-422.97,1162.9,20160.0,-21437.5,-117600.0
45252,195.2,-433.71,1142.9,-5530.0,-19197.5,-134155.0
45280,151.28,-434.81,1136.67,-11935.0,-30695.0,-136902.5
45309,45.99,-425.05,1137.16,-7245.0,-61495.0,-111720.0
45337,-107.36,-408.82,1151.68,-2415.0,-74637.5,-39042.5
45366,-248.88,-389.79,1172.91,30712.5,16642.5,46462.5
45395,-330.25,-379.66,1157.78,49192.5,99137.5,106715.0
45424,-349.65,-382.35,1107.76,6020.0,85487.5,137847.5
45453,-314.27,-392.72,1077.02,-42070.0,25935.0,134505.0
45481,-226.31,-404.8,1095.44,-44432.5,15925.0,106260.0
45510,-92.72,-412.12,1143.63,-17377.5,22785.0,47827.5
45538,51.36,-413.34,1188.4,15085.0,8890.0,-30380.0
45567,156.4,-415.9,1203.65,37992.5,-21595.0,-98752.5
45595,200.45,-426.51,1184.62,28892.5,-36067.5,-134872.5
45624,190.08,-438.59,1156.56,700.0,-28402.5,-145687.5
45653,123.46,-441.64,1140.82,-7350.0,-61722.5,-133647.5
45682,1.83,-434.32,1145.09,-14140.0,-75967.5,-83842.5
45711,-143.11,-415.53,1168.39,-2170.0,-35647.5,-12495.0
45740,-260.84,-391.74,1182.67,36417.5,31535.0,56367.5
45769,-329.16,-377.22,1159.73,39585.0,71435.0,105157.5
45797,-355.02,-377.47,1118.74,822.5,56910.0,134312.5
45826,-338.92,-389.91,1097.51,-27475.0,37765.0,143622.5
45854,-267.06,-407.24,1107.76,-35035.0,35245.0,134242.5
45883,-132.98,-418.83,1146.92,-28630.0,23310.0,79502.5
45911,24.52,-419.19,1197.19,7000.0,14805.0,-3727.5
45940,147.38,-416.02,1224.15,37887.5,-13387.5,-78750.0
45968,210.33,-421.02,1214.39,39585.0,-36680.0,-123340.0
45997,219.23,-433.1,1185.84,14227.5,-28245.0,-139247.5
46025,180.93,-442.01,1163.88,-3605.0,-63717.5,-132405.0
46053,107.85,-440.3,1165.34,-17885.0,-77385.0,-106575.0
46081,3.78,-427.0,1180.47,-6457.5,-42595.0,-72065.0
46109,-119.8,-402.11,1195.11,9747.5,-21245.0,-13107.5
46138,-223.26,-374.66,1195.23,35822.5,28577.5,46497.5
46166,-287.92,-356.48,1168.27,26950.0,64767.5,91157.5
46195,-319.64,-350.02,1134.84,3202.5,47775.0,119822.5
46223,-313.42,-355.51,1115.45,-10640.0,34650.0,136115.0
46252,-249.37,-365.76,1116.91,-20965.0,49420.0,128450.0
46280,-127.12,-370.15,1140.82,-27685.0,36242.5,81847.5
46309,22.2,-366.12,1180.59,-8855.0,31307.5,7105.0
46338,149.21,-360.51,1208.65,26442.5,2415.0,-68075.0
46366,221.19,-363.8,1205.48,34930.0,-31062.5,-114432.5
46395,241.32,-377.1,1185.6,11497.5,-24307.5,-136657.5
46423,213.74,-390.16,1174.37,-1645.0,-32060.0,-140892.5
46452,138.59,-396.01,1175.71,5390.0,-51940.0,-122762.5
46480,23.67,-391.38,1173.27,12197.5,-27492.5,-83860.0
46509,-112.24,-371.86,1161.2,10885.0,-5687.5,-23817.5
46537,-234.73,-345.38,1141.43,18060.0,13650.0,45027.5
46566,-316.96,-327.45,1110.57,9310.0,40285.0,96635.0
46595,-362.34,-324.52,1078.72,-12845.0,31080.0,127330.0
46624,-377.1,-338.31,1057.5,-23310.0,2275.0,153160.0
46653,-336.72,-365.27,1060.42,-30607.5,9275.0,162715.0
46681,-223.75,-388.45,1091.41,-22190.0,31972.5,116445.0
46710,-65.39,-396.01,1132.16,-3465.0,16555.0,48842.5
46738,95.04,-395.77,1164.61,17500.0,9975.0,-32987.5
46767,209.47,-398.57,1173.88,33670.0,-20895.0,-106487.5
46795,255.35,-411.38,1161.07,21367.5,-42735.0,-144725.0
46824,241.07,-429.68,1147.17,-945.0,-33932.5,-156870.0
46852,168.24,-438.47,1147.78,-6562.5,-54057.5,-141452.5
46881,48.19,-429.93,1156.44,1435.0,-50960.0,-96792.5
46910,-94.06,-403.09,1160.95,12075.0,-20825.0,-31832.5
46938,-218.62,-367.46,1152.17,28577.5,21717.5,41825.0
46967,-295.85,-340.87,1123.13,24307.5,53340.0,94815.0
46995,-335.13,-330.5,1088.85,-3132.5,45745.0,121362.5
47024,-351.24,-336.35,1069.94,-15120.0,23502.5,138372.5
47052,-329.52,-355.02,1072.62,-17220.0,30607.5,151672.5
47081,-241.32,-374.05,1093.73,-19197.5,47897.5,125475.0
47109,-92.72,-381.37,1128.74,-13877.5,19005.0,66307.5
47138,76.13,-380.03,1166.93,6580.0,5110.0,-16117.5
47167,204.23,-381.13,1183.64,27790.0,-22942.5,-96250.0
47196,262.54,-392.84,1174.74,14962.5,-42542.5,-136500.0
47224,263.76,-411.14,1164.61,-3902.5,-33810.0,-154717.5
47252,210.69,-423.22,1164.73,-2712.5,-53515.0,-151742.5
47281,106.51,-419.92,1171.44,-945.0,-57890.0,-116515.0
47309,-35.38,-397.48,1176.45,9030.0,-34247.5,-58205.0
47338,-176.17,-363.56,1169.74,25935.0,7297.5,20825.0
47366,-270.84,-335.01,1139.85,30362.5,63647.5,83247.5
47395,-316.71,-321.1,1094.1,1977.5,68915.0,116795.0
47424,-331.11,-321.23,1062.74,-23240.0,33565.0,133717.5
47453,-304.51,-332.21,1063.84,-28787.5,37835.0,146930.0
47481,-199.59,-347.46,1094.58,-34597.5,48160.0,125492.5
47509,-34.28,-357.22,1148.87,-27650.0,35052.5,32515.0
47538,109.07,-360.75,1203.65,21262.5,10640.0,-55702.5
47566,186.42,-366.61,1223.29,49857.5,-13492.5,-107170.0
47595,208.13,-375.27,1206.82,37257.5,-23397.5,-131985.0
47623,184.95,-380.4,1172.05,13580.0,-39585.0,-139965.0
47652,121.51,-375.39,1141.43,-12757.5,-63472.5,-115937.5
47680,31.6,-361.36,1127.77,-23765.0,-49122.5,-78907.5
47709,-72.47,-339.65,1133.38,-20860.0,-26670.0,-40337.5
47737,-182.27,-311.1,1142.9,12022.5,-2940.0,6020.0
47766,-277.18,-286.21,1131.43,24955.0,28542.5,62947.5
47795,-339.65,-274.38,1104.1,10167.5,49105.0,106855.0
47823,-364.17,-277.43,1081.41,-11725.0,42017.5,135817.5
47852,-339.77,-292.31,1078.48,-29207.5,35787.5,146265.0
47880,-241.8,-310.12,1102.88,-37800.0,31640.0,126700.0
47909,-74.05,-321.96,1151.44,-26180.0,39952.5,46182.5
47937,85.28,-327.81,1196.21,26320.0,16782.5,-58100.0
47966,168.85,-337.94,1201.82,59430.0,-20912.5,-120172.5
47994,181.29,-353.8,1174.25,32340.0,-27037.5,-137882.5
48023,142.5,-366.73,1148.51,-3552.5,-41317.5,-138407.5
48051,60.51,-368.93,1141.19,-9065.0,-76090.0,-112805.0
48079,-51.73,-358.68,1138.75,-4025.0,-56017.5,-71277.5
48108,-177.51,-337.21,1128.5,-9677.5,-30817.5,-15942.5
48136,-286.7,-312.93,1120.57,-3430.0,-8610.0,53882.5
48165,-354.29,-299.75,1111.42,4165.0,24272.5,98525.0
48193,-385.52,-301.58,1099.95,630.0,21805.0,127522.5
48222,-375.39,-317.44,1096.05,105.0,32952.5,146545.0
48251,-304.76,-339.04,1101.17,-10675.0,42682.5,141522.5
48280,-174.95,-353.8,1119.23,-17430.0,12425.0,94815.0
48308,-19.28,-359.41,1146.43,-2730.0,3605.0,18847.5
48337,111.63,-360.63,1165.22,26355.0,4777.5,-62947.5
48366,185.93,-366.73,1156.93,42105.0,-16345.0,-112210.0
48394,209.35,-378.93,1128.62,13982.5,-13947.5,-130602.5
48423,191.78,-389.3,1102.39,-14822.5,-12845.0,-136745.0
48451,132.25,-393.45,1093.12,-30800.0,-49087.5,-118020.0
48480,40.75,-392.11,1102.51,-29067.5,-37712.5,-88252.5
48508,-77.84,-380.88,1120.2,-9940.0,-36067.5,-48527.5
48537,-203.5,-359.17,1139.24,22120.0,-19775.0,15190.0
48565,-298.9,-341.11,1137.04,50522.5,40250.0,76212.5
48594,-352.95,-336.84,1104.71,25445.0,68022.5,119962.5
48623,-368.68,-346.36,1070.79,-7577.5,49665.0,143360.0
48651,-328.91,-366.73,1060.67,-31482.5,46987.5,154192.5
48680,-209.47,-388.69,1093.85,-47810.0,80955.0,115132.5
48708,-47.09,-399.43,1165.71,-16975.0,88830.0,21875.0
48737,81.13,-400.89,1234.88,46042.5,26372.5,-69597.5
48765,140.18,-408.82,1256.23,92697.5,-40617.5,-118755.0
48794,138.71,-421.51,1227.81,69335.0,-54530.0,-136377.5
48822,90.4,-427.49,1191.57,12337.5,-52482.5,-128992.5
48851,5.49,-425.78,1176.08,2240.0,-76055.0,-104650.0
48880,-101.14,-415.78,1166.08,16642.5,-48545.0,-65327.5
48909,-214.48,-395.16,1141.31,11830.0,-13947.5,-17955.0
48938,-315.13,-368.68,1111.91,2152.5,3797.5,40232.5
48966,-387.23,-349.41,1086.29,-70.0,25742.5,88760.0
48995,-427.73,-345.02,1065.3,-14105.0,29872.5,123620.0
49023,-427.98,-353.8,1057.37,-26687.5,30940.0,140122.5
49052,-370.64,-365.76,1068.72,-34160.0,31885.0,134960.0
49080,-245.34,-369.54,1106.78,-34545.0,21350.0,95707.5
49109,-81.37,-361.73,1161.81,-2117.5,24832.5,10745.0
49138,58.07,-353.07,1199.26,43837.5,5022.5,-74147.5
49167,137.25,-356.97,1194.26,60865.0,-26600.0,-127575.0
49195,153.23,-373.32,1157.05,23730.0,-33967.5,-150815.0
49223,106.02,-392.23,1129.72,-28315.0,-54652.5,-144690.0
49251,9.76,-405.04,1141.19,-28210.0,-73027.5,-110267.5
49279,-118.83,-403.45,1160.59,13335.0,-45342.5,-65135.0
49308,-257.91,-385.52,1160.46,29137.5,-14280.0,5670.0
49336,-366.61,-365.39,1138.63,36417.5,39340.0,77542.5
49365,-427.98,-358.68,1099.71,4252.5,61407.5,127260.0
49393,-443.59,-367.95,1070.92,-23415.0,35315.0,153825.0
49422,-409.07,-387.23,1066.77,-32200.0,26232.5,159127.5
49450,-311.1,-403.94,1089.7,-38237.5,32900.0,132440.0
49479,-160.06,-407.36,1139.48,-13755.0,23117.5,58502.5
49508,-5.37,-399.79,1188.16,29557.5,13107.5,-27002.5
49536,105.04,-394.55,1199.26,48300.0,-17220.0,-95760.0
49565,155.43,-401.14,1170.71,32095.0,-45482.5,-134855.0
49593,151.77,-416.02,1134.36,-5652.5,-40302.5,-147297.5
49622,98.09,-427.98,1119.84,-22120.0,-44520.0,-131355.0
49650,-0.73,-431.27,1128.13,-19600.0,-48055.0,-97912.5
49679,-137.49,-423.22,1143.02,-8277.5,-43015.0,-44292.5
49707,-273.52,-403.7,1153.39,13212.5,-7927.5,29557.5
49736,-365.88,-385.76,1140.46,28980.0,42420.0,90965.0
49765,-409.43,-382.23,1108.74,2695.0,49525.0,133700.0
49793,-407.72,-392.23,1087.75,-17867.5,35455.0,147752.5
49822,-369.42,-408.21,1086.41,-21805.0,24132.5,146107.5
49850,-277.18,-422.49,1108.0,-18165.0,44467.5,125335.0
49879,-132.37,-424.32,1142.9,-2012.5,39707.5,48212.5
49907,12.32,-412.85,1180.23,8015.0,-2870.0,-24062.5
49936,121.76,-402.84,1206.09,32672.5,-22960.0,-85977.5
49964,180.56,-406.26,1199.63,37310.0,-43120.0,-131757.5
49993,183.0,-419.31,1175.71,10080.0,-44187.5,-153107.5
50021,123.59,-429.44,1163.03,-2712.5,-52167.5,-142800.0
50050,-5.49,-432.0,1158.51,3080.0,-62387.5,-103950.0
50079,-178.85,-423.83,1156.68,455.0,-55825.0,-13947.5
50107,-316.96,-408.7,1155.1,17552.5,20702.5,78452.5
50136,-382.59,-401.38,1134.97,21175.0,59552.5,123952.5
50164,-399.31,-407.48,1106.66,-2957.5,35630.0,149467.5
50193,-355.51,-422.36,1106.3,-22540.0,39427.5,155977.5
50221,-242.05,-432.0,1140.7,-16047.5,43155.0,113820.0
50250,-86.62,-427.24,1188.16,4917.5,22102.5,46095.0
50279,64.78,-414.31,1223.54,31202.5,1470.0,-33810.0
50308,169.82,-404.31,1224.64,43575.0,-31220.0,-94290.0
50337,218.87,-405.53,1196.58,16887.5,-44730.0,-134295.0
50366,210.45,-411.87,1174.86,-11287.5,-42420.0,-145477.5
50394,148.6,-412.73,1170.83,-2170.0,-52570.0,-125352.5
50422,55.14,-405.53,1169.0,3290.0,-39357.5,-88812.5
50451,-59.05,-389.67,1163.51,-2117.5,-13860.0,-46830.0
50479,-178.24,-366.0,1158.88,3500.0,-6387.5,12005.0
50508,-270.96,-344.53,1142.65,16975.0,28035.0,67970.0
50536,-324.52,-335.26,1109.59,-2730.0,40180.0,106435.0
50565,-336.72,-337.7,1085.43,-19792.5,32795.0,132335.0
50593,-299.27,-345.75,1080.92,-26442.5,39742.5,134557.5
50622,-209.47,-349.53,1096.29,-26845.0,19285.0,114222.5
50650,-72.22,-344.77,1127.04,-11007.5,6055.0,56105.0
50678,75.76,-335.26,1153.88,10185.0,17.5,-25077.5
50707,187.64,-330.86,1157.29,18550.0,-16222.5,-90370.0
50735,240.46,-339.53,1138.38,2380.0,-24027.5,-136027.5
50764,232.04,-356.12,1119.35,-18427.5,-21752.5,-147437.5
50792,154.45,-366.98,1112.88,-19862.5,-58012.5,-132282.5
50821,21.23,-363.93,1124.6,-22820.0,-77315.0,-63875.0
50849,-111.87,-348.43,1148.26,-1242.5,-24745.0,12705.0
50878,-210.21,-330.25,1159.49,20405.0,19530.0,66780.0
50907,-267.3,-321.1,1152.53,26110.0,36050.0,107625.0
50936,-282.8,-324.4,1138.26,16030.0,37747.5,127907.5
50965,-256.08,-335.5,1127.52,8610.0,33057.5,132352.5
50993,-177.02,-347.33,1127.16,805.0,33477.5,115657.5
51022,-47.09,-352.09,1142.41,-3412.5,20667.5,62772.5
51050,101.5,-350.63,1162.17,14105.0,17062.5,-9345.0
51079,220.82,-351.97,1162.42,26547.5,-1505.0,-81410.0
51107,279.14,-362.46,1141.07,12880.0,-23100.0,-125212.5
51136,277.92,-377.59,1118.37,-12057.5,-12967.5,-139877.5
51164,214.23,-386.01,1109.22,-18165.0,-36907.5,-136780.0
51193,88.82,-379.66,1114.59,-12442.5,-65310.0,-86555.0
51221,-56.0,-358.44,1131.43,-3097.5,-32847.5,-8137.5
51250,-170.56,-332.33,1141.92,20860.0,32882.5,52010.0
51279,-240.58,-313.78,1126.43,26547.5,52185.0,94010.0
51307,-274.26,-308.66,1098.61,5582.5,31640.0,116847.5
51336,-276.94,-315.98,1080.19,-6055.0,16100.0,130130.0
51364,-228.87,-331.11,1079.21,-15190.0,27650.0,131705.0
51393,-119.32,-342.45,1095.68,-17465.0,14910.0,90440.0
51421,31.35,-347.09,1123.01,-7822.5,6457.5,21752.5
51450,169.95,-352.21,1142.53,13510.0,6160.0,-62072.5
51479,248.03,-365.27,1142.77,16065.0,-16047.5,-114047.5
51508,266.57,-385.15,1134.11,4655.0,-15557.5,-138407.5
51536,233.75,-401.38,1130.21,-2432.5,-23625.0,-144690.0
51565,151.65,-405.89,1132.53,1242.5,-45360.0,-127295.0
51594,26.6,-396.74,1130.21,3727.5,-37467.5,-83510.0
51622,-117.12,-374.3,1126.55,3062.5,-31745.0,-10955.0
51651,-233.75,-350.87,1118.25,18200.0,-6965.0,62965.0
51679,-300.85,-339.65,1094.58,12495.0,27282.5,110040.0
51708,-321.1,-343.67,1070.06,-6982.5,38762.5,141872.5
51736,-287.07,-358.8,1063.96,-19197.5,34160.0,146632.5
51765,-200.69,-372.95,1078.85,-17342.5,24220.0,114485.0
51793,-79.54,-378.08,1107.03,-7630.0,13440.0,66027.5
51822,61.37,-376.98,1137.04,13212.5,29767.5,1645.0
51851,183.37,-375.64,1149.85,31325.0,9642.5,-73920.0
51880,250.34,-381.86,1137.16,25165.0,-27877.5,-122377.5
51908,264.74,-396.26,1115.08,-1137.5,-22050.0,-143290.0
51936,228.14,-411.38,1101.17,-10237.5,-22610.0,-150867.5
51965,134.32,-419.07,1102.64,-12740.0,-49647.5,-121170.0
51993,-0.61,-411.51,1115.2,122.5,-29522.5,-63052.5
52022,-135.42,-389.55,1121.91,22295.0,9397.5,8155.0
52051,-235.7,-366.24,1105.08,26477.5,35175.0,70455.0
52080,-290.97,-354.41,1074.33,1312.5,35035.0,112840.0
52109,-305.37,-357.34,1056.03,-16555.0,21752.5,132737.5
52138,-266.94,-369.66,1061.4,-24657.5,33635.0,139405.0
52166,-165.8,-378.69,1088.48,-18620.0,42752.5,100012.5
52194,-27.21,-376.0,1128.99,1172.5,24587.5,35770.0
52223,104.8,-368.68,1159.73,33022.5,15610.0,-40337.5
52251,189.71,-366.0,1157.78,40022.5,-19880.0,-98455.0
52280,219.48,-368.2,1133.26,13842.5,-32095.0,-123515.0
52308,199.35,-373.56,1108.0,-8837.5,-22767.5,-134575.0
52337,118.83,-380.03,1099.22,-22225.0,-64225.0,-113050.0
52365,-8.05,-381.62,1116.54,-19495.0,-63472.5,-59255.0
52394,-142.86,-371.73,1136.43,15260.0,-11042.5,-682.5
52423,-252.3,-355.26,1125.57,29277.5,27965.0,62405.0
52452,-317.2,-346.97,1090.8,7227.5,40810.0,113242.5
52481,-335.26,-352.09,1062.13,-17622.5,34597.5,136080.0
52509,-302.32,-366.85,1056.15,-29172.5,28490.0,141032.5
52538,-213.26,-381.74,1075.8,-34562.5,33845.0,114065.0
52566,-80.52,-388.08,1117.76,-22697.5,15575.0,55580.0
52595,61.49,-387.23,1162.17,14017.5,6230.0,-20282.5
52624,166.29,-388.2,1177.79,48352.5,-18357.5,-90405.0
52653,211.43,-397.72,1157.9,35367.5,-37502.5,-127365.0
52681,207.89,-410.65,1130.33,-17.5,-17062.5,-139177.5
52710,156.4,-419.68,1115.57,-11602.5,-28612.5,-135485.0
52738,64.29,-422.12,1113.74,-11497.5,-35717.5,-100432.5
52767,-55.75,-415.53,1114.84,-3657.5,-21402.5,-52902.5
52796,-179.1,-397.23,1118.25,6580.0,-15872.5,10815.0
52824,-270.72,-377.35,1109.59,32287.5,10535.0,63245.0
52853,-322.57,-368.32,1080.43,10080.0,26040.0,107502.5
52881,-334.28,-370.88,1059.94,-14385.0,26705.0,129465.0
52910,-300.36,-380.64,1059.2,-19425.0,30117.5,135502.5
52938,-213.74,-389.3,1076.53,-23537.5,33582.5,108920.0
52967,-86.38,-390.89,1111.79,-15260.0,18585.0,56122.5
52995,50.14,-386.74,1151.19,10150.0,21192.5,-18865.0
53024,153.35,-385.03,1169.98,45377.5,-1995.0,-88777.5
53053,197.88,-393.08,1153.63,49682.5,-19600.0,-128222.5
53082,185.2,-405.28,1122.16,11392.5,-18847.5,-137672.5
53111,119.8,-411.63,1107.76,-12407.5,-45972.5,-121870.0
53139,9.52,-408.46,1112.15,-1032.5,-51922.5,-85417.5
53168,-124.32,-393.08,1113.49,16310.0,-22925.0,-21805.0
53196,-239.12,-371.25,1097.02,17097.5,23607.5,51887.5
53225,-307.32,-355.87,1065.3,-717.5,28122.5,100712.5
53253,-339.65,-354.17,1040.54,-22907.5,10115.0,118282.5
53282,-341.6,-363.93,1037.73,-23047.5,18410.0,132300.0
53310,-298.29,-377.1,1047.0,-20037.5,46182.5,128905.0
53339,-201.54,-385.15,1064.33,-29662.5,34072.5,95112.5
53368,-65.88,-384.42,1103.0,-27107.5,6090.0,35892.5
53396,69.17,-379.3,1149.0,12932.5,-17.5,-39847.5
53425,159.33,-381.25,1167.3,44100.0,-20965.0,-101360.0
53453,192.15,-394.3,1156.68,36575.0,-29540.0,-131687.5
53482,175.56,-409.19,1140.94,11620.0,-24395.0,-141400.0
53510,112.0,-416.75,1132.77,8400.0,-48055.0,-126875.0
53539,12.32,-414.07,1124.72,6685.0,-33582.5,-89512.5
53568,-107.48,-398.7,1115.2,17.5,-24010.0,-37292.5
53597,-221.31,-375.52,1108.86,9747.5,682.5,29890.0
53626,-299.63,-357.7,1090.44,19442.5,37502.5,81287.5
53655,-342.33,-352.34,1058.72,-3710.0,31132.5,110862.5
53684,-351.48,-359.9,1040.9,-23257.5,19232.5,130865.0
53712,-317.69,-375.03,1044.44,-27405.0,25637.5,138092.5
53741,-217.65,-389.79,1070.67,-32287.5,20860.0,119700.0
53769,-63.2,-395.52,1119.23,-13492.5,11007.5,39725.0
53798,81.5,-391.74,1164.12,28297.5,-5337.5,-47390.0
53827,172.87,-391.62,1174.74,62650.0,-13107.5,-105507.5
53856,209.6,-400.16,1147.04,43855.0,-17657.5,-131670.0
53884,197.88,-409.68,1115.93,1505.0,-27282.5,-137515.0
53913,136.52,-411.87,1101.42,-5057.5,-57522.5,-119840.0
53941,41.97,-405.77,1097.27,-11445.0,-46375.0,-73377.5
53969,-64.9,-390.4,1103.12,-18340.0,-17027.5,-32497.5
53998,-171.78,-365.76,1116.3,5512.5,-5740.0,13282.5
54026,-257.79,-343.06,1110.93,35630.0,29785.0,63612.5
54055,-311.95,-332.57,1077.26,10027.5,47407.5,102742.5
54083,-336.84,-335.62,1047.0,-20597.5,32217.5,129885.0
54112,-318.91,-351.48,1039.32,-31360.0,39112.5,147805.0
54140,-235.46,-371.61,1055.06,-45762.5,63297.5,126805.0
54169,-106.14,-383.32,1097.15,-45692.5,29977.5,62177.5
54197,27.57,-385.03,1156.56,-10447.5,7262.5,-11375.0
54226,131.03,-385.76,1196.09,43732.5,-11077.5,-84647.5
54255,183.98,-393.57,1192.67,62195.0,-27930.0,-129832.5
54283,182.88,-406.38,1162.42,36855.0,-38482.5,-151235.0
54312,122.37,-413.95,1139.48,-1382.5,-62055.0,-137655.0
54340,11.47,-410.29,1135.94,-5740.0,-52465.0,-97020.0
54369,-126.51,-395.52,1137.41,1522.5,-32462.5,-31167.5
54397,-247.54,-375.52,1136.43,7612.5,14945.0,44275.0
54426,-320.01,-360.63,1122.4,19022.5,41352.5,90230.0
54455,-354.53,-358.44,1094.83,6405.0,32427.5,116602.5
54484,-354.41,-369.17,1076.53,-16975.0,37852.5,132877.5
54512,-299.63,-384.06,1082.14,-26705.0,52290.0,128362.5
54541,-184.22,-390.64,1114.71,-29015.0,54005.0,83440.0
54570,-40.38,-385.28,1166.69,-3797.5,24080.0,15330.0
54598,81.86,-376.74,1209.02,37415.0,-3027.5,-56087.5
54627,149.94,-375.88,1213.17,63017.5,-32602.5,-103547.5
54655,164.82,-382.23,1187.3,36522.5,-35315.0,-117670.0
54684,142.37,-386.01,1164.86,-2205.0,-32392.5,-119805.0
54712,82.47,-383.57,1162.66,-8855.0,-66465.0,-111265.0
54741,-22.33,-376.0,1167.05,4812.5,-61320.0,-83107.5
54770,-155.43,-359.05,1167.17,11935.0,-36400.0,-22715.0
54799,-270.23,-336.23,1156.19,33057.5,18077.5,46900.0
54828,-340.14,-320.13,1119.96,27860.0,55545.0,95812.5
54856,-376.0,-315.74,1077.14,-15522.5,45710.0,122360.0
54885,-378.69,-324.15,1058.47,-30257.5,32637.5,143080.0
54913,-327.2,-340.14,1063.84,-34930.0,51222.5,139195.0
54942,-217.65,-352.34,1091.41,-45307.5,34562.5,98210.0
54970,-71.0,-356.24,1145.34,-24587.5,17535.0,30292.5
54999,64.05,-356.61,1194.62,27160.0,8575.0,-54880.0
55028,140.18,-361.85,1202.68,58065.0,-30712.5,-112805.0
55057,151.04,-370.51,1173.64,37100.0,-43312.5,-134085.0
55085,106.63,-375.27,1139.72,-11585.0,-40180.0,-128450.0
55114,18.67,-373.08,1134.6,-39812.5,-58205.0,-96407.5
55143,-97.97,-359.66,1157.54,-12407.5,-53182.5,-49700.0
55171,-212.77,-336.72,1175.1,34720.0,-18865.0,12232.5
55200,-291.34,-314.76,1159.24,53497.5,35490.0,61967.5
55228,-331.84,-300.24,1114.47,26215.0,31587.5,95165.0
55257,-339.53,-293.65,1075.92,-5372.5,14367.5,114660.0
55285,-295.61,-294.26,1063.72,-21997.5,36610.0,122955.0
55314,-185.56,-296.46,1078.48,-37450.0,31430.0,89162.5
55342,-34.28,-295.48,1115.93,-22365.0,7385.0,19635.0
55371,105.65,-293.53,1150.22,16765.0,5740.0,-61267.5
55400,194.22,-299.02,1153.88,44572.5,-14752.5,-116935.0
55428,225.09,-311.83,1126.3,35367.5,-10097.5,-142135.0
55457,198.49,-326.96,1089.46,-9485.0,-16135.0,-146457.5
55485,91.01,-339.4,1080.07,-48860.0,-75897.5,-119717.5
55514,-73.69,-341.84,1115.81,-28035.0,-81900.0,-36155.0
55542,-218.01,-334.65,1156.8,31202.5,12390.0,41895.0
55571,-306.22,-329.28,1149.97,56752.5,79800.0,95812.5
55599,-344.28,-333.55,1103.49,10972.5,63980.0,131792.5
55628,-334.52,-346.72,1075.19,-38570.0,39410.0,143797.5
55656,-263.03,-362.95,1088.48,-44327.5,45710.0,132492.5
55685,-122.73,-371.98,1132.77,-45220.0,42805.0,77927.5
55714,47.09,-372.47,1194.38,-3972.5,14542.5,-14945.0
55742,171.29,-375.27,1226.83,56735.0,-26600.0,-97370.0
55771,216.31,-386.25,1204.38,50172.5,-43050.0,-136937.5
55799,194.96,-398.45,1166.32,-2975.0,-25287.5,-140542.5
55828,112.61,-406.5,1150.7,-18515.0,-45692.5,-121870.0
55856,-22.69,-406.63,1154.24,-3080.0,-58380.0,-69580.0
55885,-163.85,-393.82,1159.49,14262.5,-13457.5,7962.5
55913,-262.79,-373.93,1144.6,33670.0,40040.0,62877.5
55942,-317.44,-359.66,1105.81,11427.5,39182.5,99050.0
55971,-336.72,-356.0,1075.31,-20352.5,19652.5,119612.5
56000,-310.0,-360.14,1074.09,-27440.0,27562.5,127470.0
56029,-221.06,-363.44,1101.66,-26600.0,49192.5,102462.5
56057,-81.74,-359.29,1149.73,-6597.5,30992.5,40180.0
56086,56.73,-351.48,1191.94,27545.0,2607.5,-36330.0
56114,148.47,-348.8,1200.36,46340.0,-31097.5,-93660.0
56143,183.37,-352.58,1177.79,24500.0,-40407.5,-121240.0
56171,170.31,-357.46,1154.85,-4130.0,-35052.5,-128170.0
56200,103.33,-360.88,1147.9,-8382.5,-62755.0,-119752.5
56228,-17.2,-359.66,1156.56,-4532.5,-66377.5,-72992.5
56257,-150.91,-346.85,1172.3,11900.0,-18287.5,-7630.0
56286,-253.27,-327.2,1166.56,38132.5,22942.5,47302.5
56315,-316.47,-312.32,1128.38,22942.5,35490.0,88252.5
56344,-345.26,-308.9,1089.46,-14035.0,31097.5,119000.0
56372,-331.11,-316.1,1073.6,-25550.0,32025.0,132545.0
56401,-258.4,-325.86,1084.09,-34002.5,41247.5,121310.0
56429,-132.86,-327.69,1119.35,-22382.5,26985.0,71557.5
56458,13.18,-320.01,1161.07,9765.0,21507.5,647.5
56487,133.35,-310.86,1181.08,44082.5,927.5,-71365.0
56516,200.57,-310.12,1165.34,49752.5,-22242.5,-117162.5
56544,209.84,-318.3,1127.77,8435.0,-34632.5,-143797.5
56573,156.04,-327.81,1105.93,-41930.0,-55422.5,-127820.0
56601,42.46,-333.55,1118.74,-35595.0,-74287.5,-88515.0
56629,-100.77,-333.3,1144.48,-1225.0,-41720.0,-10972.5
56658,-217.16,-326.96,1155.71,18602.5,34702.5,54495.0
56686,-284.75,-321.1,1137.16,29277.5,55212.5,94762.5
56715,-314.15,-323.3,1096.41,1977.5,33582.5,120680.0
56743,-299.63,-334.28,1069.33,-34422.5,18357.5,132352.5
56772,-232.04,-345.38,1075.8,-32357.5,23362.5,109725.0
56800,-122.49,-350.14,1102.88,-21490.0,22627.5,67445.0
56829,14.4,-349.16,1144.12,-11760.0,21735.0,8855.0
56858,138.1,-347.33,1182.18,26232.5,-8960.0,-65502.5
56887,208.38,-352.58,1189.87,44275.0,-37695.0,-114782.5
56915,229.36,-362.22,1169.13,26057.5,-27107.5,-138267.5
56943,199.23,-369.9,1142.16,-2660.0,-35035.0,-142205.0
56972,117.24,-372.47,1135.21,-22645.0,-55947.5,-111160.0
57000,-0.61,-369.17,1141.92,-3045.0,-28787.5,-62650.0
57029,-133.96,-360.14,1143.87,4497.5,8435.0,2852.5
57058,-244.73,-348.31,1136.67,23205.0,29680.0,62492.5
57087,-311.71,-342.45,1104.47,23677.5,37380.0,107467.5
57115,-332.82,-348.07,1064.57,-23310.0,25095.0,134172.5
57144,-298.9,-362.71,1059.81,-44117.5,15890.0,141260.0
57172,-198.37,-376.37,1095.19,-33565.0,26162.5,110565.0
57201,-53.92,-380.88,1145.34,-5407.5,25742.5,43295.0
57230,86.13,-377.96,1185.96,26005.0,17482.5,-29417.5
57258,186.42,-377.47,1196.33,59220.0,-6842.5,-86905.0
57287,235.46,-384.79,1167.91,48300.0,-13755.0,-123200.0
57315,229.24,-393.45,1126.06,-3237.5,-11935.0,-134925.0
57344,161.41,-400.89,1109.35,-39392.5,-51765.0,-120120.0
57372,45.63,-405.77,1126.18,-17850.0,-74707.5,-87465.0
57401,-92.96,-398.57,1143.75,15942.5,-22540.0,-30152.5
57429,-213.74,-380.4,1136.06,31202.5,41230.0,40372.5
57458,-291.95,-364.05,1099.95,23572.5,55650.0,88620.0
57487,-336.72,-359.78,1054.57,-15802.5,24640.0,118807.5
57515,-349.16,-369.9,1029.68,-35717.5,9222.5,138180.0
57544,-310.86,-388.45,1029.68,-42315.0,31815.0,138862.5
57572,-220.7,-403.33,1050.3,-44187.5,36312.5,100240.0
57601,-92.35,-410.65,1093.97,-39952.5,5477.5,52937.5
57629,49.53,-415.17,1153.51,-4532.5,3377.5,-23100.0
57658,155.43,-422.24,1190.84,53620.0,-20230.0,-95515.0
57686,202.28,-434.69,1180.47,59850.0,-43610.0,-134365.0
57715,197.15,-444.45,1145.58,16187.5,-45097.5,-147647.5
57743,135.54,-448.47,1122.64,-20930.0,-63087.5,-132895.0
57772,28.91,-446.28,1127.77,-25550.0,-63332.5,-84805.0
57801,-96.14,-437.13,1139.36,-6055.0,-25130.0,-27562.5
57829,-211.06,-423.83,1148.51,3675.0,6685.0,42385.0
57858,-285.48,-414.43,1146.8,30100.0,53235.0,93030.0
57886,-312.69,-416.51,1120.08,10185.0,53970.0,123847.5
57915,-281.7,-427.37,1103.61,-25235.0,20650.0,139055.0
57943,-182.15,-436.27,1121.91,-24657.5,16310.0,104510.0
57972,-48.31,-434.69,1150.7,1627.5,8610.0,44940.0
58001,81.01,-427.49,1161.81,18497.5,-4742.5,-12705.0
58030,182.02,-424.32,1145.58,20562.5,-29365.0,-79117.5
58058,233.75,-429.93,1112.52,-5757.5,-39952.5,-117897.5
58087,235.83,-437.49,1088.85,-37222.5,-15575.0,-128380.0
58115,182.27,-442.86,1089.09,-39532.5,-29645.0,-128607.5
58143,67.34,-450.3,1113.01,-27072.5,-75355.0,-83790.0
58172,-68.56,-449.45,1158.63,-8347.5,-35175.0,-7840.0
58200,-172.63,-437.13,1192.43,46497.5,38307.5,53200.0
58229,-234.24,-428.59,1176.32,58607.5,59027.5,94237.5
58257,-259.13,-430.9,1134.11,16327.5,36855.0,128870.0
58286,-230.46,-442.62,1113.86,-15190.0,27860.0,142817.5
58314,-137.98,-453.11,1127.16,-12547.5,36277.5,113470.0
58343,-0.24,-452.13,1156.68,3937.5,20387.5,55737.5
58372,146.16,-442.01,1182.67,32550.0,7420.0,-18760.0
58401,255.22,-434.32,1184.01,61880.0,-10342.5,-90352.5
58430,301.95,-432.98,1152.66,50942.5,-22785.0,-130270.0
58458,284.75,-434.2,1110.57,-5582.5,-32585.0,-136395.0
58487,202.28,-434.93,1099.95,-54022.5,-71977.5,-107117.5
58515,73.81,-431.39,1132.28,-24360.0,-73990.0,-50207.5
58544,-57.83,-422.12,1162.66,27160.0,-1452.5,15295.0
58573,-154.21,-410.77,1157.78,38990.0,63840.0,69877.5
58602,-209.72,-405.65,1121.91,23695.0,64802.5,104685.0
58630,-226.31,-410.9,1083.97,-20387.5,40827.5,134050.0
58659,-181.78,-421.88,1081.65,-49507.5,43855.0,135887.5
58687,-76.49,-427.85,1118.01,-41107.5,37887.5,93240.0
58715,59.29,-424.56,1170.59,-14665.0,30695.0,27790.0
58744,182.63,-417.12,1216.83,24850.0,10745.0,-52482.5
58772,255.47,-414.19,1229.88,66395.0,-28665.0,-105280.0
58801,270.96,-416.26,1199.26,55790.0,-33005.0,-130567.5
58829,230.58,-416.51,1155.1,-122.5,-16310.0,-125720.0
58858,133.96,-411.26,1132.04,-28035.0,-31517.5,-96757.5
58886,-1.46,-400.53,1129.72,-15557.5,-47040.0,-44275.0
58915,-138.23,-385.03,1132.16,9870.0,-9957.5,20650.0
58944,-237.9,-370.64,1113.01,29347.5,46620.0,80027.5
58973,-286.7,-364.78,1066.89,-455.0,49717.5,115342.5
59002,-287.92,-369.78,1033.83,-47565.0,20457.5,132510.0
59030,-229.6,-381.13,1049.69,-61967.5,31150.0,119332.5
59059,-121.02,-387.47,1103.73,-32130.0,29715.0,65135.0
59087,5.37,-385.15,1165.1,8190.0,8977.5,2642.5
59116,114.19,-382.1,1200.85,52850.0,-11462.5,-64697.5
59144,176.78,-384.54,1192.67,62125.0,-40040.0,-112332.5
59173,192.03,-389.3,1158.63,29260.0,-36540.0,-133945.0
59201,157.87,-393.94,1126.43,-7910.0,-40530.0,-134487.5
59230,65.39,-399.67,1117.15,-29225.0,-71540.0,-105717.5
59258,-65.88,-400.28,1133.75,-19810.0,-61250.0,-49000.0
59287,-194.35,-389.67,1152.78,17115.0,3570.0,19652.5
59316,-285.24,-377.71,1139.11,37432.5,53987.5,80570.0
59344,-331.84,-376.13,1093.85,5635.0,43487.5,115377.5
59373,-333.55,-387.11,1060.42,-37782.5,25322.5,140420.0
59401,-265.59,-404.8,1071.65,-56157.5,45097.5,132020.0
59430,-135.18,-414.92,1121.55,-38745.0,38832.5,71767.5
59458,11.47,-412.48,1184.25,3675.0,21315.0,-6737.5
59487,124.2,-406.38,1220.98,60795.0,-11515.0,-80972.5
59515,175.19,-405.28,1204.02,76492.5,-50470.0,-123812.5
59544,164.7,-406.02,1154.85,27947.5,-54442.5,-130130.0
59572,88.82,-404.92,1116.54,-21385.0,-57347.5,-102900.0
59601,-39.77,-403.82,1113.74,-37257.5,-81585.0,-41527.5
59630,-173.48,-398.57,1143.63,-9432.5,-47267.5,30975.0
59658,-265.47,-390.89,1160.34,47407.5,39375.0,82110.0
59687,-304.76,-390.4,1129.96,36522.5,63875.0,117705.0
59715,-288.16,-397.23,1096.41,-26687.5,38937.5,132580.0
59744,-214.23,-405.04,1103.73,-43032.5,17587.5,112245.0
59772,-100.53,-406.75,1143.38,-20265.0,6230.0,68915.0
59801,34.65,-402.11,1186.57,24885.0,21507.5,15277.5
59830,160.55,-399.18,1202.19,59780.0,20177.5,-62282.5
59859,234.73,-400.4,1182.67,50627.5,-27247.5,-117075.0
59887,246.81,-400.28,1151.07,12757.5,-31255.0,-135415.0
59915,200.69,-398.21,1127.77,-10045.0,-37572.5,-136167.5
59943,96.26,-394.3,1123.38,-16030.0,-71942.5,-93712.5
59971,-37.58,-384.54,1136.55,-7245.0,-41930.0,-27895.0
60000,-158.48,-370.15,1147.29,17045.0,11322.5,35315.0
60028,-240.58,-359.29,1131.18,32970.0,49560.0,85487.5
60057,-276.33,-357.83,1094.58,1837.5,57715.0,118440.0
60085,-257.18,-361.85,1075.8,-35700.0,48597.5,126455.0
60114,-188.98,-364.05,1093.73,-36575.0,31622.5,107922.5
60142,-75.76,-359.66,1138.02,-15400.0,25410.0,74322.5
60171,62.71,-350.14,1179.98,24937.5,17360.0,-4025.0
60200,165.55,-341.6,1192.18,41982.5,-27212.5,-66955.0
60228,210.57,-336.11,1175.96,23957.5,-32182.5,-100135.0
60257,210.57,-332.82,1145.58,-542.5,-31605.0,-118247.5
60285,158.84,-331.35,1120.08,-17325.0,-61582.5,-109672.5
60314,61.61,-330.13,1117.03,-26407.5,-69387.5,-60340.0
60342,-53.8,-324.03,1135.09,-16380.0,-40320.0,-7367.5
60371,-158.11,-311.71,1149.97,19407.5,5635.0,43592.5
60400,-228.87,-302.8,1135.82,32497.5,39725.0,86362.5
60429,-256.2,-303.54,1107.76,-3255.0,45675.0,117512.5
60457,-228.87,-310.73,1106.42,-25200.0,43067.5,119805.0
60486,-147.74,-316.59,1132.28,-7507.5,31797.5,93222.5
60515,-25.62,-315.25,1165.71,3097.5,29505.0,47390.0
60543,104.43,-307.81,1192.67,24972.5,12670.0,-21052.5
60572,194.47,-300.36,1192.18,41177.5,-23362.5,-76632.5
60600,232.29,-296.22,1161.93,27037.5,-37327.5,-100782.5
60629,229.12,-293.29,1125.57,-4287.5,-26600.0,-106837.5
60657,181.54,-291.34,1103.49,-16275.0,-40145.0,-100292.5
60686,90.52,-289.63,1103.61,-24255.0,-58992.5,-66167.5
60714,-18.3,-282.67,1120.33,-11655.0,-30537.5,-20807.5
60743,-115.29,-269.38,1127.77,11830.0,11620.0,27090.0
60772,-184.46,-258.88,1109.71,12897.5,32410.0,68845.0
60801,-221.8,-258.15,1085.56,-16187.5,25445.0,102252.5
60830,-212.89,-264.37,1083.85,-27790.0,24045.0,114730.0
60858,-153.96,-269.62,1101.78,-18427.5,18007.5,98682.5
60887,-47.95,-269.74,1134.97,-10045.0,3272.5,62912.5
60915,81.74,-265.96,1173.88,24535.0,5092.5,-9170.0
60944,185.44,-262.67,1186.57,53235.0,-9730.0,-67567.5
60972,245.46,-263.03,1161.07,47862.5,-25882.5,-107362.5
61001,256.2,-264.5,1120.69,7910.0,-28997.5,-128082.5
61029,216.06,-265.96,1092.75,-19722.5,-23835.0,-119000.0
61058,119.19,-267.91,1084.46,-24132.5,-50382.5,-85557.5
61086,-11.47,-268.16,1096.9,-14210.0,-38937.5,-11375.0
61114,-120.29,-265.84,1107.76,14385.0,23415.0,50802.5
61143,-189.83,-264.98,1087.87,19722.5,44135.0,90737.5
61171,-224.72,-272.55,1055.3,-12617.5,28000.0,123042.5
61200,-203.25,-287.55,1047.13,-37030.0,38745.0,136045.0
61228,-110.78,-299.02,1073.72,-36540.0,35315.0,101780.0
61257,34.16,-300.12,1124.47,-13282.5,20772.5,42385.0
61286,188.49,-297.68,1171.57,30520.0,18200.0,-42822.5
61315,299.88,-305.37,1181.08,67235.0,-16782.5,-113592.5
61343,339.65,-325.86,1143.14,54915.0,-38500.0,-161105.0
61372,284.63,-352.34,1092.63,-14297.5,-32725.0,-160090.0
61400,139.81,-374.78,1094.46,-60077.5,-75197.5,-93817.5
61428,-26.47,-381.62,1140.94,-945.0,-47232.5,-12985.0
61457,-152.99,-375.52,1151.92,49980.0,28262.5,52850.0
61485,-228.38,-370.15,1106.54,23537.5,38815.0,107257.5
61514,-247.54,-373.32,1064.45,-30572.5,16345.0,135922.5
61542,-203.37,-381.01,1066.28,-37187.5,21630.0,130550.0
61571,-94.92,-381.74,1101.66,-20720.0,21385.0,95497.5
61599,59.41,-370.76,1148.87,10990.0,15487.5,25515.0
61628,201.79,-356.48,1174.37,49700.0,-5232.5,-54810.0
61657,289.87,-349.41,1152.66,53042.5,-38500.0,-109882.5
61686,310.61,-353.8,1104.47,-472.5,-27807.5,-140682.5
61715,243.27,-370.03,1083.12,-50225.0,-13877.5,-129132.5
61743,93.82,-383.81,1109.71,-28472.5,-63437.5,-69405.0
61772,-61.24,-383.69,1140.7,26775.0,-24237.5,18445.0
61800,-161.53,-376.98,1119.72,38955.0,47792.5,78365.0
61829,-207.77,-374.42,1066.89,-13737.5,26197.5,118405.0
61857,-201.79,-379.79,1047.0,-45290.0,7262.5,126787.5
61886,-140.79,-385.89,1070.67,-26722.5,17237.5,112315.0
61914,-29.16,-384.18,1110.93,-525.0,19477.5,70402.5
61943,107.85,-373.81,1146.68,23485.0,11270.0,5512.5
61972,224.97,-362.1,1158.02,40547.5,-10692.5,-60935.0
62001,293.9,-356.48,1134.97,31115.0,-31955.0,-106802.5
62029,310.37,-357.83,1096.05,-8540.0,-20335.0,-133070.0
62057,268.03,-363.07,1072.14,-38325.0,-8155.0,-128117.5
62086,166.9,-366.37,1075.8,-24342.5,-39725.0,-89495.0
62114,34.16,-364.54,1090.8,5355.0,-33285.0,-20247.5
62143,-86.13,-358.19,1094.95,14122.5,9362.5,42770.0
62172,-168.24,-352.09,1082.14,17447.5,21910.0,91035.0
62201,-207.77,-354.04,1058.72,-1627.5,16537.5,119472.5
62229,-199.35,-364.05,1049.2,-23992.5,20527.5,130970.0
62258,-129.08,-375.03,1068.11,-20020.0,26722.5,114170.0
62286,0.24,-377.83,1106.05,630.0,23817.5,64575.0
62316,151.16,-372.59,1145.7,27037.5,18602.5,-11445.0
62345,265.47,-367.1,1159.0,53060.0,-19810.0,-80920.0
62373,314.52,-365.88,1133.75,40932.5,-41772.5,-121397.5
62402,298.05,-366.98,1096.66,-8382.5,-17185.0,-130935.0
62430,211.18,-364.9,1081.16,-27632.5,-18550.0,-100205.0
62459,77.1,-358.8,1081.9,-5757.5,-28805.0,-29732.5
62487,-50.26,-350.87,1078.6,-7840.0,3027.5,37310.0
62516,-136.15,-342.82,1066.04,-3185.0,1715.0,79642.5
62545,-179.58,-340.5,1043.1,-8382.5,-7035.0,108237.5
62574,-177.14,-345.5,1029.19,-31902.5,7070.0,121940.0
62602,-119.8,-352.95,1042.12,-25882.5,962.5,105822.5
62631,-6.95,-356.61,1077.02,-6282.5,-2292.5,65887.5
62660,139.08,-354.78,1115.69,25952.5,5442.5,-6300.0
62688,261.08,-352.58,1127.89,56752.5,-15890.0,-79817.5
62717,321.59,-355.87,1101.66,50767.5,-27247.5,-130077.5
62745,311.1,-361.12,1056.52,10902.5,-5040.0,-142520.0
62774,229.97,-362.58,1021.87,-29662.5,12827.5,-113890.0
62802,97.36,-357.83,1018.58,-39637.5,-37835.0,-43977.5
62831,-34.4,-348.55,1037.73,-16467.5,-22977.5,27895.0
62859,-128.83,-339.16,1041.15,12967.5,20562.5,73867.5
62888,-183.61,-335.99,1021.02,-700.0,24290.0,113890.0
62917,-187.64,-343.67,1010.16,-30782.5,18462.5,132160.0
62946,-137.49,-355.75,1026.75,-29855.0,17500.0,114905.0
62974,-40.5,-364.78,1061.89,-3832.5,10832.5,81882.5
63002,94.06,-367.22,1103.61,17132.5,15400.0,23572.5
63031,220.09,-365.39,1129.48,43155.0,-7315.0,-52465.0
63059,290.24,-365.88,1124.23,46305.0,-29190.0,-99837.5
63088,303.9,-368.56,1097.88,24500.0,-20265.0,-122675.0
63116,264.13,-369.78,1069.82,-5827.5,-17850.0,-120575.0
63145,166.53,-366.61,1058.47,-18025.0,-46392.5,-83300.0
63173,36.6,-356.97,1063.11,-6247.5,-50400.0,-18147.5
63202,-78.2,-342.09,1067.5,7280.0,-3745.0,41387.5
63231,-153.23,-330.38,1052.49,19005.0,45832.5,84280.0
63260,-179.95,-328.42,1022.36,-10552.5,43295.0,112682.5
63289,-147.01,-333.79,1016.99,-45027.5,14805.0,111912.5
63317,-56.85,-338.31,1052.74,-28385.0,5425.0,84822.5
63346,73.69,-337.09,1099.46,11742.5,25725.0,31272.5
63374,203.5,-331.96,1124.72,38535.0,6195.0,-40477.5
63403,288.29,-328.67,1120.45,35280.0,-32147.5,-92330.0
