timestamp_ms,acc_x,acc_y,acc_z,gyro_x,gyro_y,gyro_z
270655,201.67,-237.9,1041.88,28280.0,22435.0,-73447.5
270683,284.63,-258.64,1050.18,71155.0,3990.0,-138845.0
270712,280.97,-283.28,1006.01,54425.0,15767.5,-163345.0
270740,163.97,-303.29,954.65,-24237.5,30222.5,-132772.5
270769,-41.97,-307.44,956.24,-49350.0,-70140.0,-44432.5
270797,-236.44,-301.95,980.64,14455.0,-62527.5,51975.0
270826,-345.75,-308.29,957.94,52132.5,15487.5,123690.0
270855,-362.22,-331.96,911.46,-6737.5,16765.0,158217.5
270883,-286.7,-361.36,914.51,-35752.5,17535.0,139825.0
270912,-136.64,-378.32,969.17,-9730.0,23467.5,76457.5
270940,39.04,-379.66,1037.12,33687.5,43977.5,-4165.0
270969,183.49,-381.25,1079.46,67550.0,22715.0,-84665.0
270997,263.28,-393.69,1075.8,77752.5,-12915.0,-140507.5
271026,254.25,-409.19,1032.0,33215.0,-11007.5,-162715.0
271054,132.0,-416.75,995.52,-23380.0,36540.0,-120855.0
271083,-53.07,-409.8,970.51,-805.0,22207.5,-55772.5
271112,-227.29,-389.18,934.64,-9817.5,-51275.0,11882.5
271140,-347.46,-368.68,904.02,-19407.5,-13422.5,82145.0
271169,-393.08,-362.34,873.64,-20282.5,17832.5,117897.5
271197,-380.76,-370.27,852.29,-44415.0,-26127.5,123917.5
271226,-325.98,-384.18,863.52,-48737.5,-44695.0,111072.5
271254,-224.36,-396.74,902.07,-32515.0,-15977.5,82477.5
271283,-85.52,-402.6,950.38,-17797.5,4480.0,26915.0
271312,51.85,-406.14,991.62,1242.5,-3115.0,-44135.0
271341,141.4,-414.92,1007.72,27632.5,-9100.0,-110092.5
271369,158.84,-426.15,995.03,28717.5,-3080.0,-139107.5
271398,88.82,-431.39,974.29,3255.0,-18742.5,-135257.5
271427,-50.26,-425.41,969.17,-15540.0,-51520.0,-63787.5
271455,-176.41,-409.68,978.93,-16152.5,-7472.5,16835.0
271484,-247.17,-388.57,984.54,1960.0,21700.0,51887.5
271512,-288.29,-369.17,974.66,6125.0,-10657.5,73010.0
271541,-308.9,-358.31,965.51,-9380.0,-32865.0,103302.5
271569,-283.28,-357.83,967.34,-8067.5,-13440.0,110162.5
271598,-202.89,-364.29,977.34,-6930.0,-37975.0,87307.5
271626,-78.81,-371.37,996.98,2380.0,6772.5,40197.5
271655,63.56,-375.39,1012.23,14612.5,38220.0,-31622.5
271684,165.92,-377.22,1011.14,18340.0,10377.5,-109707.5
271713,183.24,-375.76,999.67,14700.0,5985.0,-134382.5
271742,119.32,-368.68,986.49,8960.0,14875.0,-110302.5
271770,-3.66,-357.46,978.68,700.0,-32445.0,-59360.0
271799,-132.98,-345.63,988.44,-4287.5,-44030.0,14630.0
271827,-225.58,-335.62,997.59,21157.5,-5652.5,68775.0
271856,-276.21,-334.77,981.61,20685.0,5442.5,115622.5
271884,-270.23,-346.24,961.85,-9082.5,11830.0,136500.0
271913,-203.62,-361.61,961.36,-20405.0,9800.0,110512.5
271941,-93.21,-373.56,977.46,-14105.0,2730.0,69807.5
271970,47.34,-382.35,1001.62,-5792.5,10202.5,11585.0
271999,178.97,-388.94,1014.67,9747.5,17657.5,-65590.0
272027,254.49,-397.35,1008.21,7752.5,9852.5,-114467.5
272056,265.59,-409.19,995.64,3640.0,35455.0,-138250.0
272084,197.88,-417.0,983.2,4812.5,35980.0,-143290.0
272113,44.41,-413.82,989.42,-7035.0,-42735.0,-81025.0
272141,-123.95,-401.26,1010.65,12215.0,-11112.5,10220.0
272170,-241.07,-388.94,1004.18,32252.5,21560.0,77052.5
272198,-300.36,-387.84,966.0,5512.5,-262.5,122237.5
272227,-294.51,-398.21,941.84,-30327.5,-19232.5,137165.0
272255,-229.12,-410.9,948.31,-18515.0,-5057.5,113505.0
272284,-119.8,-419.19,965.63,-5057.5,-1452.5,82477.5
272313,24.52,-421.88,988.93,1785.0,11287.5,23397.5
272341,170.31,-422.49,1010.89,19267.5,16940.0,-57942.5
272370,277.43,-431.76,1016.38,31675.0,3937.5,-128572.5
272398,316.22,-452.01,1003.08,22522.5,1242.5,-177537.5
272427,277.79,-471.04,986.74,-13422.5,542.5,-165882.5
272455,156.16,-485.56,978.56,-26092.5,-31115.0,-135345.0
272484,-40.75,-497.03,994.18,-30100.0,-83615.0,-41912.5
272512,-224.72,-503.13,1032.36,11585.0,-18182.5,67462.5
272541,-328.91,-514.11,1035.05,51152.5,46007.5,133262.5
272569,-353.8,-538.63,997.96,14630.0,36312.5,173845.0
272598,-290.12,-566.32,983.81,-24150.0,18165.0,167615.0
272627,-151.77,-580.72,1010.53,-7962.5,-38780.0,105105.0
272655,19.15,-577.43,1048.1,29277.5,-31605.0,37047.5
272684,188.12,-567.06,1063.23,46672.5,5547.5,-43470.0
272712,314.27,-564.01,1050.42,30905.0,-7595.0,-117110.0
272741,367.83,-572.42,1027.48,4392.5,-2432.5,-160860.0
272769,338.92,-584.14,1013.33,-19162.5,25025.0,-171237.5
272798,206.79,-585.72,1017.85,-8015.0,-3570.0,-142817.5
272826,-7.69,-570.47,1025.41,15382.5,-37747.5,-50907.5
272855,-213.01,-549.0,1019.8,11270.0,2432.5,58415.0
272884,-340.38,-540.22,997.47,5932.5,39847.5,134505.0
272912,-383.32,-556.56,963.31,-15732.5,40792.5,173232.5
272941,-338.18,-593.41,952.09,-56262.5,20002.5,176435.0
272969,-203.74,-628.06,999.79,-52360.0,6930.0,125090.0
272998,-16.71,-643.79,1081.9,8067.5,31342.5,40705.0
273026,160.55,-647.21,1144.73,61057.5,29312.5,-55790.0
273055,279.14,-652.33,1157.66,84175.0,-17657.5,-128992.5
273083,320.74,-662.22,1120.08,53060.0,-48352.5,-176575.0
273112,253.64,-671.61,1066.89,-15662.5,-20912.5,-186112.5
273140,51.73,-671.85,1037.0,-53025.0,-34247.5,-114030.0
273169,-194.59,-652.82,1047.49,-41370.0,-51800.0,15137.5
273197,-365.76,-629.76,1052.62,29540.0,17115.0,105227.5
273225,-443.35,-626.35,1007.35,19495.0,59972.5,160247.5
273254,-432.12,-647.94,959.41,-46497.5,35297.5,183365.0
273282,-330.13,-678.93,976.0,-79432.5,-1137.5,139965.0
273311,-161.04,-697.35,1057.86,-32235.0,13405.0,70980.0
273339,26.72,-701.38,1145.09,34615.0,35665.0,-22295.0
273368,167.87,-706.14,1188.4,77350.0,-3832.5,-110442.5
273396,224.85,-717.97,1171.44,76720.0,-29330.0,-163397.5
273425,171.53,-727.49,1118.25,13335.0,-5285.0,-184537.5
273453,-22.57,-718.46,1079.46,-18497.5,-37275.0,-120575.0
273482,-262.54,-688.08,1061.4,6615.0,-47705.0,9170.0
273511,-418.95,-657.34,1025.9,19110.0,26915.0,99470.0
273539,-476.53,-644.4,970.02,-14945.0,51992.5,146895.0
273568,-451.77,-651.48,941.72,-65677.5,11690.0,147385.0
273596,-363.32,-666.0,971.97,-62055.0,-23747.5,113505.0
273625,-226.8,-673.32,1037.49,-26670.0,-4917.5,73482.5
273653,-56.61,-672.71,1105.08,13597.5,2835.0,-8627.5
273682,87.11,-673.2,1148.51,51275.0,-19337.5,-98857.5
273710,163.24,-680.39,1152.05,63455.0,-25865.0,-148715.0
273739,169.46,-690.03,1117.64,41317.5,-4287.5,-184642.5
273767,62.1,-691.01,1069.09,1260.0,-18672.5,-172392.5
273796,-138.59,-675.03,1044.56,-27720.0,-49157.5,-64120.0
273824,-327.2,-646.6,1046.27,-14262.5,-6002.5,33670.0
273852,-449.81,-624.76,1032.73,23012.5,29365.0,102165.0
273881,-505.08,-622.93,993.81,-105.0,33915.0,150990.0
273909,-482.88,-640.13,974.78,-48825.0,30642.5,168665.0
273938,-384.06,-660.87,1002.6,-56490.0,5617.5,136920.0
273966,-221.19,-671.73,1070.18,-33635.0,9782.5,83072.5
273995,-36.84,-671.24,1142.9,24430.0,29942.5,-24220.0
274023,99.43,-668.56,1180.23,66762.5,-10780.0,-107292.5
274052,168.12,-674.29,1166.81,80062.5,-30677.5,-159757.5
274080,156.53,-683.44,1114.59,32480.0,-17500.0,-186882.5
274109,34.28,-686.62,1072.38,-27860.0,-30327.5,-154595.0
274137,-166.53,-675.15,1067.87,-32935.0,-59447.5,-62615.0
274165,-360.14,-650.26,1072.38,5460.0,-6562.5,35525.0
274194,-488.12,-631.72,1044.32,31745.0,45902.5,114992.5
274222,-536.92,-635.13,993.93,-14840.0,46322.5,163257.5
274251,-503.01,-656.85,978.07,-65660.0,31430.0,166005.0
274279,-393.69,-676.61,1020.41,-56122.5,10517.5,120207.5
274308,-227.65,-679.78,1098.85,-16747.5,11112.5,56700.0
274336,-41.72,-670.76,1175.1,29365.0,14682.5,-39515.0
274365,104.92,-668.19,1208.9,69282.5,-37572.5,-122815.0
274393,174.46,-682.96,1186.94,66150.0,-62562.5,-179550.0
274422,144.45,-707.6,1137.53,12127.5,-24850.0,-188475.0
274450,-6.34,-729.07,1109.59,-40215.0,-37695.0,-144532.5
274478,-231.31,-728.1,1127.04,-34037.5,-78190.0,-45272.5
274506,-425.54,-708.45,1141.43,39025.0,-3640.0,62212.5
274534,-528.87,-697.23,1103.25,46445.0,52955.0,140122.5
274563,-544.36,-704.18,1051.4,-14595.0,46917.5,175980.0
274591,-475.56,-721.75,1040.05,-51030.0,29452.5,173530.0
274620,-326.35,-733.22,1078.11,-56227.5,665.0,130655.0
274648,-125.54,-731.76,1148.87,-24692.5,9345.0,36050.0
274677,56.73,-724.68,1208.17,43750.0,-3972.5,-74515.0
274706,166.04,-725.29,1215.36,89162.5,-40722.5,-139842.5
274735,196.79,-734.81,1159.12,70717.5,-33180.0,-174212.5
274763,123.22,-747.49,1086.65,-32672.5,2327.5,-166005.0
274791,-62.1,-750.54,1076.53,-90090.0,-41265.0,-92557.5
274820,-271.94,-730.9,1120.2,-24815.0,-39375.0,9940.0
274848,-416.51,-704.67,1128.38,62492.5,34265.0,86782.5
274877,-486.29,-690.76,1082.38,33372.5,48562.5,140665.0
274905,-486.78,-695.4,1038.34,-15085.0,27860.0,165567.5
274934,-408.33,-709.31,1039.68,-40022.5,6527.5,151672.5
274962,-245.1,-712.48,1098.37,-19862.5,19810.0,95077.5
274991,-40.02,-698.08,1179.86,27422.5,37432.5,-5477.5
275020,120.29,-681.74,1226.83,68460.0,-29277.5,-96477.5
275049,194.83,-676.86,1207.43,60410.0,-69685.0,-149852.5
275077,179.1,-680.52,1149.36,-4375.0,-48125.0,-172847.5
275105,49.17,-681.86,1118.74,-67497.5,-43750.0,-133997.5
275134,-147.74,-667.58,1138.75,-47582.5,-54092.5,-38447.5
275162,-315.25,-640.01,1159.24,21682.5,5285.0,46077.5
275191,-414.07,-616.1,1134.11,45937.5,54022.5,101325.0
275219,-453.96,-605.85,1085.56,-1505.0,37835.0,134750.0
275248,-433.47,-610.61,1065.79,-38587.5,29102.5,150045.0
275276,-332.82,-618.42,1092.27,-30170.0,37380.0,122062.5
275305,-162.5,-612.44,1155.58,-6790.0,39392.5,56945.0
275334,21.96,-596.34,1223.78,31937.5,18742.5,-36365.0
275363,153.72,-589.14,1247.82,63070.0,-41755.0,-114432.5
275391,203.98,-597.56,1215.24,34545.0,-62597.5,-161192.5
275419,156.4,-610.49,1164.73,-16415.0,-24727.5,-171290.0
275447,-10.98,-611.59,1130.82,-31832.5,-30205.0,-105735.0
275475,-229.97,-599.63,1118.86,-21945.0,-31517.5,6055.0
275504,-395.28,-584.26,1105.93,-367.5,13370.0,83615.0
275532,-476.53,-576.69,1069.7,3622.5,27772.5,134015.0
275561,-453.96,-585.11,1048.22,-57802.5,-75652.5,165585.0
275589,-339.77,-599.26,1093.12,-9187.5,-53970.0,115972.5
275618,-170.8,-600.48,1147.29,70805.0,108272.5,57715.0
275646,4.88,-585.36,1169.74,44327.5,-8592.5,-18917.5
275675,128.47,-569.01,1175.96,43190.0,-65222.5,-83562.5
275704,193.37,-558.27,1136.8,29190.0,-43855.0,-124267.5
275732,192.39,-554.12,1078.24,-47390.0,-41947.5,-144655.0
275760,97.11,-548.63,1067.99,-81690.0,-33757.5,-120575.0
275788,-61.73,-530.21,1105.32,-19897.5,-20125.0,-43995.0
275817,-210.33,-504.35,1117.28,30502.5,24675.0,33705.0
275845,-312.08,-481.78,1090.8,7927.5,12617.5,104615.0
275874,-352.46,-472.51,1068.72,-1995.0,5320.0,141662.5
275902,-333.55,-478.0,1060.91,-3325.0,26950.0,148137.5
275931,-252.3,-490.56,1072.38,-12250.0,41002.5,127890.0
275959,-115.66,-500.69,1105.08,-7192.5,35420.0,63857.5
275988,35.75,-504.71,1133.87,9800.0,4462.5,-13107.5
276017,157.5,-507.76,1132.16,4392.5,-22487.5,-84980.0
276045,219.23,-515.57,1111.05,-14000.0,-31535.0,-132790.0
276073,212.89,-522.4,1097.15,-22645.0,-7367.5,-147735.0
276101,124.44,-518.87,1095.07,-12827.5,-7700.0,-141330.0
276130,-41.24,-500.69,1110.32,-6825.0,-39707.5,-62755.0
276158,-207.16,-474.34,1125.57,23012.5,13055.0,32952.5
276187,-313.78,-454.82,1106.17,30327.5,25200.0,98280.0
276215,-361.36,-452.13,1069.94,3167.5,10972.5,143902.5
276244,-341.23,-466.16,1053.47,-9677.5,17115.0,157395.0
276272,-250.34,-485.32,1063.35,-10325.0,16450.0,124285.0
276301,-108.34,-498.13,1091.17,-665.0,2415.0,63647.5
276330,48.31,-503.13,1117.76,20720.0,3342.5,-12005.0
276358,173.85,-506.67,1115.57,29365.0,-9870.0,-84892.5
276387,234.24,-513.62,1080.19,4095.0,-27825.0,-136272.5
276415,218.5,-515.94,1051.64,-32865.0,-1662.5,-152005.0
276444,112.48,-506.67,1055.91,-22190.0,-29890.0,-123392.5
276472,-50.02,-487.76,1082.38,-6562.5,-55755.0,-35717.5
276501,-181.54,-461.65,1103.37,17150.0,8067.5,41720.0
276529,-231.07,-434.81,1090.44,17885.0,24045.0,90125.0
276558,-193.74,-415.41,1075.43,-5862.5,-19005.0,92837.5
276586,-111.63,-399.18,1078.24,10745.0,13632.5,49927.5
276615,-26.84,-380.88,1070.92,11550.0,16362.5,12250.0
276644,38.55,-364.54,1065.91,-5477.5,-542.5,-27142.5
276672,75.15,-353.31,1065.55,4427.5,-4672.5,-45937.5
276701,88.94,-343.55,1060.18,-13982.5,3920.0,-61915.0
276729,59.54,-329.4,1060.42,-14577.5,-7542.5,-67060.0
276758,-18.54,-310.12,1069.21,-7192.5,-32532.5,-20527.5
276786,-104.68,-293.78,1084.34,14017.5,-14770.0,43207.5
276815,-165.31,-289.51,1081.65,35577.5,27650.0,86992.5
276843,-189.71,-294.51,1062.13,16922.5,28245.0,119262.5
276872,-146.89,-305.24,1051.88,-5075.0,26460.0,120522.5
276900,-28.3,-315.74,1056.76,-13562.5,9712.5,55737.5
276929,122.61,-320.86,1069.7,-1785.0,-6055.0,-28402.5
276958,247.78,-327.57,1069.7,9135.0,-8977.5,-108587.5
276986,297.31,-339.77,1053.23,3412.5,-14682.5,-154297.5
277015,248.15,-352.58,1045.05,-17115.0,1242.5,-155540.0
277043,88.94,-349.29,1067.01,-17902.5,-35787.5,-97930.0
277072,-103.7,-333.18,1097.27,25725.0,-11042.5,14017.5
277100,-236.68,-325.98,1086.04,40092.5,37922.5,93782.5
277129,-294.26,-335.5,1046.52,-560.0,26442.5,151305.0
277157,-255.83,-358.68,1034.8,-32462.5,11165.0,156205.0
277186,-131.76,-380.76,1059.81,-16747.5,455.0,95287.5
277215,31.11,-392.47,1091.17,10552.5,612.5,21052.5
277244,184.71,-398.7,1101.9,29137.5,1872.5,-57557.5
277273,288.65,-409.07,1082.87,29225.0,-10342.5,-118037.5
277301,318.91,-425.54,1050.3,1085.0,-7017.5,-152775.0
277330,270.23,-439.44,1039.44,-23187.5,6300.0,-141085.0
277358,162.26,-443.71,1060.3,-11742.5,2677.5,-105140.0
277387,14.52,-430.17,1084.82,18025.0,15645.0,-62387.5
277415,-135.54,-401.01,1074.45,37047.5,15330.0,6300.0
277444,-248.15,-374.91,1030.29,8295.0,5390.0,71400.0
277473,-318.79,-366.0,991.49,-30520.0,4707.5,118230.0
277502,-352.21,-376.37,970.75,-34370.0,4742.5,142187.5
277530,-333.3,-403.82,959.77,-25550.0,10937.5,159285.0
277559,-232.53,-434.81,973.19,-35105.0,30292.5,131390.0
277587,-74.91,-451.64,1019.07,-17692.5,10570.0,61740.0
277615,91.99,-457.87,1075.8,8540.0,-1032.5,-17062.5
277644,227.77,-468.72,1116.06,36330.0,-15155.0,-103985.0
277672,294.75,-490.81,1123.86,54670.0,-28315.0,-160405.0
277701,284.63,-514.35,1103.86,44940.0,-8767.5,-182402.5
277729,177.14,-525.09,1073.23,19057.5,-20702.5,-166162.5
277758,-20.01,-514.84,1053.35,-10360.0,-56997.5,-73360.0
277786,-215.57,-491.78,1052.13,-28962.5,-14227.5,35857.5
277815,-339.16,-475.56,1047.25,-840.0,22907.5,102147.5
277843,-398.7,-475.8,1021.51,2345.0,33967.5,140630.0
277872,-408.82,-494.59,994.91,-28980.0,21787.5,173302.5
277900,-332.33,-527.04,1003.82,-45780.0,10395.0,178115.0
277928,-176.29,-551.2,1052.62,-16852.5,2292.5,92277.5
277957,3.29,-557.42,1108.98,24360.0,-525.0,14927.5
277986,167.51,-560.59,1144.48,54652.5,8225.0,-79905.0
278015,267.06,-571.45,1139.97,69160.0,-18112.5,-153912.5
278043,277.92,-584.75,1104.47,28245.0,-22032.5,-184852.5
278072,194.47,-589.75,1077.75,-17517.5,-8750.0,-164552.5
278100,17.69,-579.99,1075.67,-10325.0,-26862.5,-94850.0
278129,-184.22,-555.47,1079.21,8417.5,-29155.0,3990.0
278158,-328.18,-531.43,1065.91,21245.0,7437.5,76667.5
278187,-403.21,-522.4,1025.04,6772.5,26057.5,124215.0
278216,-423.95,-530.94,978.56,-30940.0,7857.5,149152.5
278245,-371.37,-552.42,963.31,-53410.0,2695.0,161175.0
278274,-215.45,-571.33,998.08,-56612.5,3097.5,107257.5
278302,-0.49,-573.89,1061.52,-19705.0,7420.0,9240.0
278331,187.88,-569.25,1112.76,23642.5,10552.5,-92907.5
278359,293.53,-578.04,1126.91,67305.0,8067.5,-166565.0
278388,299.39,-602.8,1096.17,60462.5,23502.5,-194687.5
278416,180.07,-629.52,1053.1,14402.5,297.5,-181597.5
278445,-46.12,-637.33,1042.61,-3255.0,-76737.5,-79030.0
278473,-261.2,-623.54,1044.56,27685.0,-9607.5,43242.5
278502,-386.37,-612.68,1005.77,23135.0,55072.5,126735.0
278530,-426.39,-616.71,949.89,-39515.0,31272.5,169820.0
278559,-384.54,-629.28,931.59,-71732.5,-9170.0,180005.0
278588,-262.67,-637.33,952.21,-63857.5,-42350.0,135345.0
278616,-92.35,-633.55,996.86,-34632.5,-19950.0,59220.0
278645,85.89,-623.3,1043.83,3132.5,23100.0,-23100.0
278673,226.43,-621.71,1071.16,30800.0,3412.5,-109742.5
278702,295.97,-638.3,1074.82,36365.0,5267.5,-164727.5
278730,295.48,-661.48,1060.79,35297.5,26565.0,-189297.5
278759,209.23,-675.03,1040.66,23870.0,-11340.0,-183102.5
278787,36.97,-669.54,1029.68,3500.0,-46480.0,-106295.0
278816,-150.43,-647.82,1033.58,-700.0,-21052.5,2170.0
278845,-286.21,-625.62,1028.7,16992.5,29032.5,81497.5
278874,-365.27,-617.44,996.98,4620.0,50312.5,132790.0
278903,-397.72,-626.59,959.16,-32200.0,38360.0,167055.0
278931,-364.9,-647.09,947.82,-54145.0,35385.0,176645.0
278960,-257.91,-662.7,974.17,-57365.0,29155.0,126175.0
278988,-101.63,-660.75,1037.73,-39462.5,2450.0,60305.0
279017,69.42,-646.84,1116.91,8295.0,29382.5,-22032.5
279046,203.86,-639.77,1169.74,55492.5,-5617.5,-111877.5
279075,264.13,-658.92,1176.08,75337.5,-28892.5,-167002.5
279103,250.1,-696.99,1153.51,53900.0,-7945.0,-192657.5
279132,147.13,-727.73,1131.31,38955.0,-50120.0,-195545.0
279160,-53.92,-730.78,1107.39,26355.0,-112805.0,-123532.5
279189,-268.52,-707.84,1091.17,-1470.0,-44485.0,25375.0
279218,-401.87,-683.44,1071.16,6772.5,84525.0,123900.0
279246,-455.55,-674.05,1036.88,-27090.0,81112.5,168665.0
279275,-459.21,-680.27,1019.92,-46952.5,34615.0,176417.5
279303,-403.82,-696.13,1039.32,-47285.0,42560.0,174020.0
279332,-266.08,-702.72,1096.17,-29032.5,48090.0,123497.5
279360,-69.66,-689.79,1173.15,2957.5,9275.0,25042.5
279389,107.73,-674.54,1234.88,44135.0,-15662.5,-84262.5
279417,206.06,-676.61,1244.64,62807.5,-51415.0,-154420.0
279446,219.36,-696.25,1212.8,24885.0,-56507.5,-185832.5
279474,140.06,-717.24,1185.96,-9310.0,-62597.5,-179357.5
279503,-34.28,-719.8,1183.03,-12442.5,-93240.0,-114782.5
279531,-238.51,-700.28,1191.33,-3885.0,-52692.5,-192.5
279559,-385.76,-677.59,1187.3,16817.5,42735.0,96687.5
279588,-456.77,-668.8,1152.41,5985.0,65240.0,152967.5
279616,-467.63,-677.59,1115.93,-32497.5,32532.5,177275.0
279645,-402.23,-695.89,1121.42,-35717.5,28140.0,169925.0
279673,-250.95,-708.33,1165.1,-18532.5,26092.5,111562.5
279702,-48.92,-705.4,1223.17,9205.0,22137.5,16870.0
279731,125.78,-698.45,1268.92,41632.5,-19215.0,-91857.5
279760,214.96,-702.72,1269.65,63612.5,-50557.5,-160842.5
279788,223.5,-715.16,1224.15,31517.5,-41212.5,-189280.0
279817,136.64,-723.34,1174.37,-29172.5,-63122.5,-186217.5
279845,-51.24,-715.65,1171.2,-60725.0,-111615.0,-92872.5
279873,-248.51,-695.4,1214.39,-7980.0,-29820.0,35752.5
279902,-372.95,-680.27,1229.52,45675.0,82635.0,117967.5
279930,-427.0,-680.15,1192.43,22225.0,85645.0,168577.5
279959,-415.65,-696.86,1159.98,-23257.5,74707.5,191117.5
279987,-318.18,-719.31,1176.32,-51415.0,78732.5,159355.0
280016,-150.55,-729.32,1247.33,-28752.5,41037.5,69510.0
280044,21.84,-726.39,1328.58,44660.0,5145.0,-37012.5
280073,140.91,-724.92,1357.01,93800.0,-24850.0,-120680.0
280101,185.2,-729.8,1321.14,72905.0,-52500.0,-168052.5
280129,143.72,-732.61,1263.19,12180.0,-48667.5,-173320.0
280157,12.81,-722.12,1228.17,-23397.5,-50890.0,-121677.5
280185,-170.43,-695.89,1215.97,-8627.5,-46690.0,-47705.0
280214,-338.43,-659.29,1200.97,7105.0,1942.5,41352.5
280242,-445.3,-627.57,1160.34,9975.0,36067.5,113312.5
280271,-491.05,-614.51,1106.54,-26950.0,24027.5,152162.5
280299,-481.05,-620.0,1079.46,-43015.0,33600.0,158725.0
280328,-406.99,-634.64,1081.9,-44292.5,34282.5,136797.5
280356,-269.86,-644.4,1114.84,-44677.5,-4077.5,74270.0
280385,-96.62,-645.26,1172.54,-12267.5,-9152.5,-3045.0
280414,59.41,-647.09,1221.46,20265.0,-11725.0,-88987.5
280442,147.62,-661.0,1243.55,40267.5,-43435.0,-152722.5
280470,159.58,-682.22,1240.01,42857.5,-27947.5,-177957.5
280498,92.11,-694.55,1215.0,30485.0,-34947.5,-179445.0
280527,-66.86,-684.18,1195.11,717.5,-86747.5,-122167.5
280555,-260.23,-651.24,1198.53,1750.0,-41755.0,-12390.0
280584,-400.65,-616.34,1193.77,27422.5,40442.5,83947.5
280612,-468.85,-596.82,1159.24,14875.0,66307.5,138127.5
280641,-483.73,-595.85,1120.33,-20632.5,46515.0,157780.0
280669,-457.01,-611.46,1106.54,-41650.0,33495.0,160387.5
280698,-365.88,-637.33,1130.94,-48317.5,36977.5,149345.0
280726,-200.32,-656.97,1184.62,-17832.5,28997.5,76807.5
280754,-11.96,-661.48,1236.84,17062.5,29242.5,-19215.0
280783,130.3,-662.7,1257.09,36960.0,-21315.0,-113487.5
280811,188.73,-673.93,1236.71,37957.5,-56122.5,-168665.0
280840,161.28,-688.2,1198.77,7087.5,-42980.0,-183365.0
280868,40.5,-684.91,1181.33,-25550.0,-63910.0,-152775.0
280897,-151.65,-658.68,1192.18,-15715.0,-67112.5,-61915.0
280925,-329.64,-624.03,1206.09,15032.5,7717.5,52482.5
280954,-430.78,-599.51,1190.35,31797.5,74497.5,127085.0
280982,-463.11,-593.41,1146.19,525.0,53252.5,154945.0
281011,-456.52,-604.27,1108.61,-26127.5,16012.5,155855.0
281039,-402.48,-628.67,1097.39,-38325.0,4882.5,152967.5
281067,-298.29,-652.46,1112.52,-32182.5,6965.0,101990.0
281096,-162.26,-666.0,1147.78,-13580.0,2047.5,53567.5
281124,-2.07,-672.95,1189.99,5827.5,29312.5,-18620.0
281153,134.08,-681.61,1222.81,25812.5,-8260.0,-108850.0
281181,200.45,-700.4,1229.15,52325.0,-30607.5,-167702.5
281210,192.76,-722.24,1204.26,40197.5,-25200.0,-193585.0
281238,93.7,-729.8,1177.67,4165.0,-43102.5,-183155.0
281267,-96.87,-709.06,1170.35,-8505.0,-68267.5,-105262.5
281295,-301.34,-666.61,1174.13,15995.0,-18410.0,16345.0
281324,-434.32,-631.23,1151.92,44537.5,64452.5,109112.5
281352,-481.29,-619.27,1095.07,1767.5,70122.5,148225.0
281380,-461.77,-627.81,1060.06,-48230.0,28245.0,155330.0
281409,-361.36,-646.6,1087.63,-60217.5,35560.0,142362.5
281437,-183.73,-660.51,1164.49,-21857.5,26845.0,61180.0
281466,3.29,-665.88,1238.3,39462.5,16467.5,-40897.5
281495,133.22,-675.51,1265.63,68355.0,-23765.0,-123042.5
281524,183.0,-691.25,1248.06,56385.0,-41737.5,-166407.5
281552,145.42,-700.89,1200.24,25567.5,-52920.0,-180757.5
281581,0.37,-691.13,1161.68,-34230.0,-126840.0,-124810.0
281609,-196.54,-661.48,1175.96,-42035.0,-59167.5,-9240.0
281638,-347.58,-630.01,1201.58,18287.5,53200.0,81322.5
281667,-428.71,-613.54,1183.4,31325.0,83580.0,135642.5
281695,-449.57,-616.1,1146.19,-9327.5,59115.0,165707.5
281724,-402.6,-631.72,1135.45,-33057.5,42350.0,162312.5
281752,-279.38,-647.94,1163.88,-36645.0,14770.0,118440.0
281781,-101.63,-656.6,1220.0,-7385.0,5915.0,36505.0
281809,67.1,-659.29,1265.99,40810.0,8872.5,-68092.5
281838,167.14,-665.02,1267.21,61967.5,-30065.0,-140070.0
281866,189.1,-673.93,1225.12,35035.0,-31745.0,-171745.0
281895,127.37,-676.86,1178.76,-17447.5,-33530.0,-170625.0
281923,-27.82,-663.19,1171.81,-45710.0,-76650.0,-118090.0
281952,-225.7,-630.5,1195.72,-1225.0,-50557.5,-14070.0
281980,-376.25,-596.34,1196.82,43505.0,59640.0,85820.0
282008,-445.54,-577.3,1148.87,19057.5,90650.0,143675.0
282037,-450.91,-575.84,1099.71,-42647.5,35910.0,159775.0
282065,-389.91,-587.06,1099.71,-53865.0,19092.5,148697.5
282094,-260.1,-598.17,1144.36,-30625.0,11795.0,94867.5
282122,-90.52,-602.31,1203.65,5862.5,-14787.5,22452.5
282151,63.56,-609.27,1240.98,39445.0,-38395.0,-88952.5
282179,144.08,-623.79,1230.37,48842.5,-47757.5,-162767.5
282208,146.16,-635.01,1190.6,10377.5,-6440.0,-169802.5
282236,78.08,-634.64,1161.07,-20317.5,-18567.5,-152162.5
282264,-56.36,-621.35,1158.76,-24675.0,-65887.5,-102462.5
282292,-213.74,-594.38,1171.08,-5775.0,-41265.0,-24587.5
282320,-334.89,-561.93,1174.74,23887.5,10290.0,48072.5
282349,-397.11,-538.51,1153.51,35192.5,39235.0,95725.0
282377,-414.07,-529.36,1116.67,-1802.5,28350.0,120977.5
282406,-390.16,-529.48,1101.9,-33442.5,25480.0,134592.5
282434,-322.08,-530.94,1114.23,-18795.0,17167.5,127820.0
282463,-193.0,-527.53,1134.84,-6352.5,29767.5,94902.5
282491,-22.33,-516.79,1156.68,-4882.5,27982.5,2152.5
282520,111.75,-506.06,1177.3,10045.0,840.0,-79607.5
282549,179.58,-507.52,1184.38,38972.5,3360.0,-124127.5
282577,185.07,-519.11,1171.57,40582.5,-122.5,-150360.0
282606,113.22,-527.65,1155.46,27527.5,-31675.0,-149380.0
282634,-36.23,-519.23,1139.36,21665.0,-60655.0,-102707.5
282663,-211.18,-492.64,1117.15,9800.0,-52797.5,-682.5
282691,-338.92,-468.85,1095.56,1925.0,23310.0,82547.5
282720,-403.33,-458.96,1068.11,507.5,58327.5,119542.5
282748,-421.39,-461.89,1044.08,-29925.0,45867.5,144077.5
282777,-376.98,-474.58,1046.27,-43155.0,61915.0,147385.0
282805,-258.15,-484.34,1079.09,-45377.5,45150.0,103057.5
282834,-98.21,-482.14,1137.77,-20667.5,18742.5,28840.0
282863,42.46,-480.19,1199.87,22225.0,892.5,-64225.0
282891,122.73,-490.68,1228.78,84210.0,-42595.0,-128327.5
282920,127.37,-508.13,1211.22,54320.0,-56577.5,-151235.0
282948,55.27,-514.72,1190.96,1820.0,-46200.0,-136272.5
282977,-70.52,-496.42,1181.45,13667.5,-34037.5,-98192.5
283005,-215.57,-461.65,1148.87,25900.0,-57155.0,-28262.5
283034,-342.09,-428.83,1104.1,-9607.5,2975.0,54687.5
283063,-422.0,-411.38,1072.38,-30852.5,63595.0,115535.0
283092,-453.6,-413.09,1058.35,-41825.0,66395.0,141680.0
283120,-444.57,-428.71,1061.89,-31220.0,53987.5,142170.0
283148,-394.55,-449.45,1077.38,-26320.0,54390.0,130970.0
283176,-290.85,-465.06,1116.54,-33810.0,48790.0,92330.0
283204,-155.18,-467.99,1184.25,-13912.5,17360.0,16450.0
283233,-40.99,-465.06,1246.6,34982.5,-19390.0,-53375.0
283261,30.01,-468.72,1273.31,67322.5,-52867.5,-106067.5
283290,59.78,-480.8,1261.72,67567.5,-59412.5,-143150.0
283318,33.31,-493.86,1223.54,37257.5,-76895.0,-168000.0
283347,-74.91,-493.12,1188.77,-8260.0,-93800.0,-141505.0
283375,-242.29,-470.07,1175.59,-15225.0,-63122.5,-55265.0
283404,-395.65,-436.03,1164.86,4445.0,26512.5,41562.5
283433,-491.9,-410.04,1131.67,11305.0,75512.5,106802.5
283461,-535.21,-403.7,1089.95,-29435.0,78802.5,148750.0
283489,-537.78,-414.8,1074.94,-51660.0,77875.0,152495.0
283517,-502.15,-437.49,1085.43,-40320.0,57172.5,143675.0
283546,-407.48,-463.36,1124.6,-55947.5,54232.5,107765.0
283574,-266.45,-477.75,1207.43,-45902.5,19390.0,34562.5
283603,-135.66,-483.73,1292.83,28087.5,-15085.0,-44607.5
283631,-51.73,-495.32,1324.8,79082.5,-34125.0,-105315.0
283660,-20.5,-510.57,1303.45,65905.0,-48965.0,-144532.5
283688,-48.56,-518.87,1269.29,22820.0,-78137.5,-159880.0
283717,-145.91,-512.64,1246.72,8067.5,-108220.0,-141050.0
283745,-304.02,-489.46,1230.25,8312.5,-103320.0,-68442.5
283773,-457.38,-458.11,1210.48,13247.5,-3605.0,42245.0
283802,-547.41,-434.56,1171.93,12180.0,75652.5,114852.5
283830,-574.13,-429.2,1129.72,-15330.0,54530.0,159355.0
283859,-541.8,-439.93,1114.84,-15365.0,47775.0,153965.0
283887,-443.47,-456.65,1133.38,-19302.5,56070.0,118300.0
283916,-288.41,-466.28,1187.18,-16572.5,19967.5,46025.0
283944,-124.2,-468.6,1243.06,20947.5,-280.0,-45395.0
283973,-9.88,-476.78,1260.02,34650.0,-33197.5,-118895.0
284001,34.16,-493.0,1244.03,22785.0,-38010.0,-153335.0
284030,7.81,-506.91,1213.78,5040.0,-42315.0,-166127.5
284059,-102.48,-506.42,1195.48,-17885.0,-90790.0,-139720.0
284087,-277.55,-486.54,1205.12,-11147.5,-75670.0,-52692.5
284115,-437.13,-458.11,1211.22,19880.0,26512.5,54862.5
284143,-525.94,-440.18,1180.23,16835.0,77332.5,123077.5
284172,-556.08,-440.79,1140.33,-17972.5,51537.5,157150.0
284200,-540.58,-459.45,1133.14,-16940.0,38167.5,167720.0
284229,-470.43,-487.02,1152.17,-8540.0,56437.5,145407.5
284257,-341.72,-506.54,1189.87,-8977.5,16362.5,97457.5
284286,-171.65,-511.67,1243.79,11795.0,4515.0,20790.0
284315,-14.27,-511.3,1278.44,40687.5,-20580.0,-71960.0
284343,80.64,-518.01,1269.9,33775.0,-57855.0,-137550.0
284372,103.46,-533.02,1243.18,2170.0,-44747.5,-168420.0
284400,44.41,-543.75,1226.34,-10797.5,-46672.5,-168017.5
284429,-98.33,-536.07,1225.25,-2467.5,-77262.5,-127400.0
284457,-280.6,-506.91,1228.54,13790.0,-40862.5,-31465.0
284486,-420.78,-472.63,1211.7,26092.5,44782.5,66447.5
284514,-485.93,-450.55,1166.08,5635.0,66727.5,117390.0
284543,-501.79,-444.32,1126.18,-29050.0,42035.0,132772.5
284571,-491.54,-451.16,1113.37,-28262.5,44695.0,134837.5
284600,-422.97,-467.38,1124.11,-37922.5,65135.0,138915.0
284628,-270.35,-478.24,1168.76,-37292.5,37730.0,72432.5
284656,-90.52,-478.73,1229.76,-665.0,1610.0,-20230.0
284685,46.6,-484.58,1263.19,30012.5,-28770.0,-103250.0
284713,110.29,-504.35,1260.14,25497.5,-52745.0,-154577.5
284742,101.14,-528.99,1245.25,10972.5,-41912.5,-176050.0
284770,6.34,-544.24,1234.88,560.0,-80132.5,-166547.5
284799,-164.94,-537.53,1238.3,-3990.0,-87010.0,-90527.5
284827,-337.09,-511.91,1243.79,17867.5,3377.5,21560.0
284856,-444.81,-488.61,1216.22,27912.5,79030.0,102042.5
284884,-488.0,-480.68,1164.86,-10920.0,63857.5,141557.5
284913,-489.22,-487.27,1134.97,-32340.0,40880.0,150255.0
284941,-447.74,-503.62,1135.58,-35682.5,52027.5,148802.5
284969,-347.7,-521.79,1159.98,-42280.0,39340.0,126507.5
284997,-195.57,-532.65,1211.83,-32112.5,30677.5,53375.0
285025,-44.53,-538.02,1268.68,11707.5,-210.0,-40442.5
285054,52.09,-548.51,1296.37,43750.0,-37275.0,-109725.0
285082,91.5,-565.71,1290.52,50260.0,-41300.0,-148137.5
285111,74.91,-581.94,1265.63,31097.5,-48107.5,-175437.5
285139,-31.35,-586.82,1254.77,8365.0,-90895.0,-157150.0
285168,-207.4,-568.4,1266.6,29207.5,-53287.5,-73972.5
285196,-361.73,-531.68,1247.08,54775.0,40600.0,25795.0
285225,-447.01,-497.52,1179.25,17307.5,56157.5,92872.5
285254,-480.8,-479.83,1117.64,-34440.0,38955.0,127225.0
285282,-484.34,-480.44,1096.29,-49490.0,41790.0,138775.0
285310,-462.5,-495.44,1102.64,-47705.0,65940.0,145810.0
285338,-379.42,-517.04,1135.94,-59325.0,83440.0,133595.0
285367,-234.36,-529.72,1202.92,-36680.0,33390.0,42700.0
285395,-88.82,-532.41,1270.26,12827.5,-12127.5,-37415.0
285424,18.91,-539.36,1294.18,50785.0,-22260.0,-106225.0
285452,70.15,-555.1,1269.9,43032.5,-54880.0,-155102.5
285481,53.19,-573.16,1233.54,6265.0,-66482.5,-180740.0
285509,-45.51,-580.96,1222.44,-14927.5,-96407.5,-160632.5
285538,-213.5,-568.28,1234.03,1575.0,-78680.0,-80010.0
285566,-376.86,-541.92,1241.23,20527.5,11357.5,42350.0
285595,-470.68,-521.92,1220.61,25515.0,77630.0,124075.0
285624,-497.03,-517.52,1182.42,-2362.5,70000.0,153107.5
285652,-465.06,-524.84,1162.66,-21875.0,54862.5,146177.5
285681,-373.08,-535.34,1172.42,-28192.5,40652.5,107135.0
285709,-234.24,-540.34,1211.83,-19022.5,11567.5,48475.0
285738,-78.57,-540.58,1257.58,16870.0,8260.0,-30205.0
285766,40.75,-546.07,1271.48,40687.5,-32637.5,-111037.5
285795,93.94,-561.44,1246.84,28140.0,-54757.5,-157325.0
285823,77.23,-577.3,1212.8,-7315.0,-53567.5,-174947.5
285852,-20.74,-583.53,1205.6,-26092.5,-85802.5,-147315.0
285880,-184.46,-573.89,1228.3,-11865.0,-80360.0,-69685.0
285909,-342.09,-551.2,1253.43,20720.0,18200.0,43400.0
285938,-432.49,-532.04,1241.47,37695.0,99872.5,116707.5
285966,-464.45,-526.06,1197.43,3657.5,66850.0,147245.0
285995,-453.11,-531.92,1167.17,-21210.0,38237.5,152775.0
286023,-390.77,-543.88,1168.52,-28542.5,57697.5,133052.5
286052,-274.99,-551.44,1197.55,-26827.5,30415.0,88620.0
286080,-127.12,-550.46,1247.33,-4865.0,4462.5,17465.0
286109,3.78,-547.54,1283.93,37310.0,-2712.5,-61145.0
286138,80.28,-551.32,1281.24,43995.0,-41527.5,-116725.0
286167,99.8,-559.49,1256.11,25655.0,-49087.5,-147105.0
286195,56.73,-562.05,1229.27,4165.0,-63665.0,-153650.0
286223,-54.78,-552.17,1214.14,-11672.5,-86082.5,-117460.0
286251,-205.45,-529.24,1215.24,-12390.0,-56280.0,-33827.5
286279,-331.84,-501.54,1219.51,5582.5,23240.0,58432.5
286308,-399.18,-481.41,1203.53,15680.0,62142.5,107957.5
286336,-421.88,-473.24,1170.35,-1557.5,36732.5,125877.5
286365,-413.7,-475.43,1148.14,-18427.5,25830.0,127872.5
286393,-368.56,-485.07,1146.92,-20562.5,36085.0,123392.5
286422,-269.86,-495.32,1166.69,-20790.0,16660.0,91297.5
286450,-124.07,-499.59,1207.92,-4900.0,4760.0,27685.0
286479,23.06,-499.1,1246.35,26880.0,-3587.5,-54617.5
286508,122.85,-502.88,1250.74,48790.0,-34545.0,-121450.0
286536,161.04,-513.13,1217.07,38132.5,-40985.0,-158165.0
286564,131.88,-521.43,1177.06,-2380.0,-36207.5,-166705.0
286592,24.03,-519.48,1163.03,-20230.0,-60672.5,-130760.0
286621,-134.57,-506.06,1174.13,-13247.5,-51992.5,-48895.0
286649,-278.65,-485.32,1188.52,7262.5,20002.5,41090.0
286678,-366.85,-467.14,1174.25,23065.0,63227.5,102480.0
286706,-402.6,-460.67,1133.99,-2047.5,48632.5,132107.5
286735,-400.04,-466.41,1105.56,-27160.0,34562.5,138390.0
286763,-357.58,-479.7,1105.08,-35140.0,46095.0,131250.0
286792,-263.15,-491.66,1130.57,-29592.5,30730.0,98245.0
286820,-125.9,-495.2,1179.01,-13282.5,17727.5,36540.0
286848,14.4,-492.39,1228.54,22382.5,8260.0,-38832.5
286877,114.8,-495.81,1248.79,50977.5,-33355.0,-106697.5
286905,156.65,-509.72,1233.3,50330.0,-48912.5,-147910.0
286934,133.22,-523.87,1199.75,20982.5,-37887.5,-165777.5
286962,29.65,-525.09,1178.28,-3255.0,-69317.5,-142572.5
286991,-135.91,-508.5,1175.1,-227.5,-68792.5,-63192.5
287019,-289.14,-481.17,1171.08,3447.5,16765.0,37380.0
287048,-380.64,-458.11,1147.78,3867.5,65152.5,101780.0
287076,-419.19,-449.45,1114.84,-18655.0,45587.5,129097.5
287105,-421.88,-454.57,1097.76,-30397.5,36732.5,133315.0
287133,-391.25,-467.63,1102.39,-34282.5,53340.0,130112.5
287161,-309.88,-481.17,1129.48,-33530.0,36312.5,107887.5
287189,-181.17,-487.76,1180.23,-16520.0,3027.5,47477.5
287217,-44.04,-487.51,1233.66,20597.5,997.5,-22977.5
287246,61.37,-489.95,1257.21,49140.0,-28227.5,-90352.5
287274,114.31,-500.2,1245.38,50277.5,-53025.0,-135187.5
287303,111.26,-511.42,1216.1,28332.5,-41002.5,-156765.0
287331,41.6,-512.89,1192.31,9992.5,-64225.0,-150587.5
287360,-94.18,-498.98,1178.4,5967.5,-72852.5,-100835.0
287388,-250.34,-472.26,1171.08,-3570.0,-17517.5,-6860.0
287417,-366.12,-444.93,1159.0,6142.5,56805.0,76195.0
287446,-423.95,-428.22,1127.89,-3570.0,58450.0,120557.5
287474,-439.2,-424.56,1096.78,-25042.5,38132.5,134382.5
287502,-420.17,-430.9,1087.63,-35332.5,43067.5,130252.5
287530,-356.24,-443.59,1104.34,-39637.5,44327.5,117320.0
287559,-240.71,-453.84,1150.58,-30660.0,17990.0,67812.5
287587,-106.14,-457.5,1210.97,5565.0,6020.0,-140.0
287616,7.32,-460.06,1250.99,42280.0,-8347.5,-66832.5
287645,76.62,-468.48,1255.26,57802.5,-41177.5,-120557.5
287674,96.5,-478.0,1230.98,44905.0,-52325.0,-154367.5
287702,54.17,-481.17,1197.67,17727.5,-67165.0,-168210.0
287731,-63.93,-472.63,1176.08,2607.5,-75652.5,-131757.5
287759,-224.36,-451.77,1158.27,-1575.0,-28577.5,-44940.0
287787,-361.24,-427.98,1139.97,-13387.5,33845.0,52552.5
287816,-439.44,-412.24,1119.35,-11497.5,51870.0,108587.5
287844,-470.92,-409.68,1092.88,-23310.0,26162.5,131162.5
287873,-466.89,-420.29,1080.07,-33985.0,29102.5,138127.5
287901,-411.63,-439.08,1093.85,-39112.5,46130.0,133507.5
287930,-298.78,-454.21,1135.7,-30922.5,14805.0,90212.5
287958,-155.18,-459.94,1190.48,770.0,1942.5,26705.0
287987,-19.52,-461.89,1230.25,32602.5,6370.0,-48352.5
288016,71.98,-468.24,1237.81,48615.0,-32375.0,-109270.0
288045,108.34,-480.07,1217.32,41807.5,-44205.0,-146860.0
288073,88.57,-488.73,1186.08,19075.0,-43627.5,-161595.0
288101,5.86,-487.88,1165.1,4795.0,-54197.5,-142905.0
288130,-133.35,-475.43,1154.0,1050.0,-43802.5,-82460.0
288158,-278.53,-453.23,1149.73,-1855.0,5670.0,12810.0
288187,-378.69,-429.68,1136.8,9817.5,48615.0,79940.0
288215,-433.34,-415.04,1104.1,-4935.0,32235.0,118562.5
288244,-453.35,-413.21,1075.8,-21542.5,24045.0,135852.5
288272,-434.2,-423.83,1068.72,-29907.5,40810.0,141242.5
288301,-357.09,-438.83,1087.75,-35892.5,38605.0,123585.0
288329,-223.02,-447.37,1133.87,-25340.0,-1277.5,65345.0
288358,-68.81,-448.84,1190.48,9905.0,-3185.0,-12180.0
288387,58.32,-451.52,1222.2,44940.0,-15855.0,-88445.0
288415,124.81,-460.92,1213.9,52237.5,-47932.5,-141015.0
288443,126.27,-469.82,1182.06,29522.5,-39725.0,-160527.5
288471,54.53,-470.8,1154.61,5075.0,-46830.0,-151847.5
288500,-89.43,-459.94,1146.07,-2677.5,-55877.5,-91752.5
288528,-243.63,-437.0,1147.65,4182.5,-5040.0,3902.5
288557,-347.94,-411.87,1132.04,12110.0,46602.5,71627.5
288585,-402.36,-395.04,1094.46,-10062.5,35315.0,109795.0
288614,-422.49,-390.16,1065.55,-29890.0,22330.0,124565.0
288642,-413.58,-396.38,1057.13,-29697.5,35525.0,127557.5
288671,-349.9,-409.68,1071.16,-37467.5,39690.0,122902.5
288699,-218.87,-418.95,1117.15,-27720.0,7595.0,67830.0
288727,-56.36,-420.17,1179.98,7525.0,2152.5,-7700.0
288756,82.23,-421.39,1217.32,44117.5,-16467.5,-90895.0
288784,153.96,-428.71,1206.34,48282.5,-50330.0,-148242.5
288813,149.82,-440.3,1164.61,14507.5,-43172.5,-173057.5
288841,54.41,-445.67,1137.16,-24045.0,-55947.5,-149065.0
288870,-106.14,-436.03,1141.92,-13300.0,-51030.0,-62387.5
288898,-252.91,-417.12,1148.02,8050.0,19110.0,31377.5
288927,-345.87,-400.53,1129.35,9450.0,56647.5,93030.0
288956,-389.91,-394.3,1096.05,-13352.5,30782.5,127172.5
288985,-392.6,-399.43,1078.36,-32830.0,29400.0,130567.5
289013,-359.78,-410.04,1088.73,-32637.5,41720.0,118720.0
289041,-282.55,-421.39,1114.84,-21560.0,26477.5,101080.0
289069,-155.79,-428.71,1151.68,-13545.0,8872.5,51135.0
289097,-8.78,-430.66,1193.4,11357.5,4672.5,-19512.5
289126,108.82,-435.3,1213.41,39725.0,-18182.5,-97020.0
289154,169.82,-449.57,1198.77,43365.0,-38465.0,-148487.5
289183,168.6,-467.99,1164.86,19775.0,-31482.5,-185850.0
289211,86.13,-477.14,1144.24,-5600.0,-63315.0,-162627.5
289240,-68.69,-470.8,1138.99,-4707.5,-53375.0,-94850.0
289268,-240.46,-453.84,1139.11,-5740.0,-10150.0,9800.0
289297,-367.59,-437.49,1134.11,7070.0,50645.0,93082.5
289326,-435.05,-434.56,1105.32,-1120.0,50627.5,140910.0
289354,-454.08,-448.23,1076.77,-28717.5,31990.0,155330.0
289383,-428.59,-471.16,1075.8,-26267.5,11830.0,148120.0
289411,-348.92,-498.13,1099.22,-26530.0,19197.5,132912.5
289440,-207.28,-516.06,1144.36,-17517.5,54075.0,79065.0
289468,-43.19,-519.72,1203.9,8855.0,-9660.0,-8627.5
289497,74.79,-521.55,1241.35,52307.5,-31902.5,-92645.0
289525,133.83,-526.8,1228.91,62842.5,-35507.5,-130515.0
289554,154.94,-533.87,1182.18,27527.5,-41387.5,-162925.0
289582,114.56,-539.73,1133.87,-16555.0,-56840.0,-174002.5
289611,-4.88,-535.58,1121.18,-47757.5,-66010.0,-122990.0
289639,-161.04,-517.28,1142.04,-16870.0,-20720.0,-39130.0
289667,-297.56,-492.39,1151.68,14717.5,37765.0,42770.0
289696,-379.42,-471.9,1136.8,10045.0,55125.0,100765.0
289724,-410.41,-459.94,1113.01,787.5,61320.0,113487.5
289753,-411.87,-456.28,1097.76,-6685.0,14332.5,116760.0
289781,-381.86,-460.43,1104.1,-9205.0,-21455.0,112630.0
289810,-310.37,-464.7,1125.82,-7490.0,40285.0,100485.0
289838,-194.71,-459.7,1151.92,-6545.0,79712.5,61390.0
289867,-74.91,-446.52,1186.08,5757.5,12967.5,-4042.5
289896,6.34,-435.17,1212.8,36995.0,-16257.5,-53900.0
289925,56.49,-430.42,1209.51,42962.5,-28402.5,-92627.5
289954,76.62,-429.93,1188.52,21227.5,-47670.0,-125370.0
289982,54.53,-426.88,1168.76,7262.5,-50382.5,-134435.0
290011,-11.35,-417.73,1145.58,4812.5,-48457.5,-127540.0
290039,-126.39,-399.31,1119.84,-15855.0,-41457.5,-84700.0
290068,-264.5,-373.2,1104.34,-16170.0,17517.5,-6912.5
290096,-379.91,-347.7,1076.16,-5880.0,49227.5,54565.0
290125,-446.64,-330.62,1041.15,-22697.5,-2170.0,94797.5
290153,-470.31,-329.77,1036.63,-22155.0,-59482.5,115272.5
290182,-450.67,-345.75,1063.84,-10010.0,-8277.5,134732.5
290210,-388.33,-368.93,1097.39,385.0,44187.5,125912.5
290238,-294.87,-388.45,1118.25,-682.5,71925.0,111737.5
290267,-170.31,-397.11,1138.14,682.5,32130.0,45867.5
290295,-58.07,-396.26,1162.78,20930.0,-24850.0,-28735.0
290324,16.35,-393.82,1168.15,38482.5,-20387.5,-72292.5
290352,63.81,-394.18,1145.58,29172.5,-27072.5,-108482.5
290381,79.91,-397.48,1113.49,5792.5,-30275.0,-131145.0
290409,60.51,-399.55,1085.8,-10360.0,-28245.0,-141610.0
290438,-13.05,-396.99,1067.26,-23992.5,-49227.5,-134102.5
290466,-142.01,-387.47,1064.57,-30975.0,-43032.5,-79502.5
290495,-280.23,-368.81,1071.4,-16205.0,16450.0,1417.5
290524,-375.27,-346.11,1065.18,-2642.5,42647.5,66570.0
290552,-419.19,-331.11,1052.86,-4952.5,-12705.0,89722.5
290581,-436.88,-330.62,1056.64,-10762.5,-7035.0,110582.5
290609,-427.49,-343.06,1070.92,-7402.5,24780.0,134102.5
290638,-378.08,-361.36,1086.04,-8435.0,54355.0,129955.0
290666,-301.1,-375.39,1099.59,-16310.0,60620.0,99277.5
290695,-203.98,-382.96,1122.03,-14560.0,27527.5,57295.0
290723,-101.5,-387.47,1159.0,16187.5,-26407.5,-13545.0
290752,-23.79,-392.72,1181.45,53147.5,-37992.5,-66937.5
290780,27.21,-399.55,1166.81,51642.5,-36627.5,-104912.5
290809,47.7,-406.26,1133.87,16310.0,-45115.0,-129412.5
290837,32.57,-406.63,1111.66,0.0,-29925.0,-134837.5
290865,-22.69,-399.43,1094.83,3552.5,-38517.5,-127942.5
290894,-127.12,-386.01,1076.16,-10237.5,-38780.0,-92925.0
290922,-256.44,-365.88,1062.99,-14577.5,10552.5,-22120.0
290951,-361.49,-345.75,1046.27,-11410.0,36190.0,37992.5
290979,-430.29,-332.57,1022.6,-22907.5,21070.0,72765.0
291008,-467.75,-330.86,1019.68,-26565.0,-19425.0,98525.0
291036,-476.78,-343.06,1047.0,-140.0,-19232.5,121502.5
291065,-459.7,-365.39,1073.36,4935.0,43715.0,133507.5
291093,-407.36,-389.42,1085.07,-8785.0,52605.0,135117.5
291122,-316.22,-406.99,1099.22,-16887.5,41842.5,108780.0
291150,-205.33,-412.12,1123.5,-2957.5,8102.5,49280.0
291178,-99.43,-409.8,1147.41,15697.5,-11270.0,-6720.0
291207,-6.71,-406.75,1157.9,29050.0,-16327.5,-58852.5
291235,64.66,-408.7,1154.12,33005.0,-32392.5,-103355.0
291264,104.07,-418.22,1140.21,29312.5,-35402.5,-136360.0
291292,95.77,-431.88,1121.42,11567.5,-24955.0,-157220.0
291321,14.15,-443.35,1108.74,17.5,-51607.5,-157972.5
291350,-147.62,-442.62,1106.3,2940.0,-58852.5,-99575.0
291379,-330.5,-427.73,1104.34,9975.0,-9065.0,4532.5
291408,-457.01,-411.14,1088.48,12197.5,48002.5,86415.0
291437,-517.28,-405.77,1055.54,-787.5,44660.0,129745.0
291466,-523.62,-416.39,1027.24,-23012.5,11252.5,153405.0
291494,-471.16,-436.64,1027.48,-34370.0,9415.0,146650.0
291523,-353.31,-453.23,1063.11,-30747.5,8977.5,115325.0
291551,-183.0,-456.77,1121.55,-1960.0,22067.5,44152.5
291580,-21.72,-451.64,1169.49,26302.5,13370.0,-43085.0
291608,79.91,-452.74,1185.84,45885.0,-37135.0,-108727.5
291637,121.51,-463.23,1172.3,40390.0,-44275.0,-146405.0
291665,111.39,-480.8,1139.24,9450.0,-50417.5,-175507.5
291694,25.86,-498.37,1122.52,-34720.0,-104545.0,-157675.0
291722,-119.44,-498.86,1143.14,-31797.5,-72135.0,-83405.0
291751,-257.42,-477.87,1164.12,9362.5,15750.0,3710.0
291780,-348.8,-451.16,1152.66,27597.5,57242.5,70315.0
291808,-396.5,-433.95,1122.52,8470.0,47687.5,111300.0
291837,-413.82,-428.95,1101.9,-12652.5,30852.5,131232.5
291865,-394.55,-433.1,1098.49,-14682.5,29470.0,141452.5
291894,-325.13,-438.96,1107.64,-11007.5,36557.5,127155.0
291922,-198.74,-435.54,1128.87,-3972.5,31972.5,72765.0
291951,-42.21,-421.75,1156.32,8102.5,8925.0,-5600.0
291980,86.74,-411.14,1175.71,14420.0,-17045.0,-79992.5
292009,157.5,-414.07,1179.74,13545.0,-32760.0,-128695.0
292037,171.04,-427.49,1173.64,4585.0,-24937.5,-151410.0
292066,125.54,-440.91,1163.27,2380.0,-31692.5,-149922.5
292094,18.54,-444.93,1155.83,-5897.5,-52097.5,-109865.0
292122,-123.34,-436.52,1153.02,-297.5,-28367.5,-39602.5
292151,-251.93,-419.92,1147.17,7805.0,12512.5,34457.5
292179,-340.87,-406.02,1126.55,18270.0,37852.5,85802.5
292208,-390.16,-403.7,1096.29,-1925.0,39305.0,123725.0
292236,-401.26,-411.75,1075.31,-14157.5,40197.5,139300.0
292265,-367.95,-426.27,1069.94,-25970.0,33285.0,144830.0
292293,-273.28,-438.59,1091.53,-40740.0,39480.0,120925.0
292322,-119.8,-438.47,1142.9,-23397.5,34370.0,52955.0
292350,30.5,-430.66,1197.06,16607.5,5495.0,-42892.5
292379,122.37,-430.29,1220.73,48807.5,-40337.5,-103600.0
292407,158.36,-441.76,1207.31,44362.5,-35315.0,-135695.0
292435,145.91,-457.13,1175.84,10990.0,-34895.0,-156870.0
292463,66.73,-465.92,1154.36,-19600.0,-77297.5,-138792.5
292491,-51.36,-462.5,1154.85,-26460.0,-62090.0,-71785.0
292520,-160.06,-445.06,1158.02,-13317.5,-11970.0,-23747.5
292548,-249.98,-421.39,1153.14,-892.5,-4305.0,32410.0
292577,-310.61,-403.58,1138.26,13422.5,20475.0,76212.5
292605,-343.31,-394.91,1113.98,1050.0,32777.5,103547.5
292634,-349.29,-395.52,1098.24,-13895.0,32760.0,125632.5
292662,-314.76,-403.82,1095.56,-18497.5,39410.0,126350.0
292691,-236.07,-411.63,1104.59,-21997.5,34387.5,101727.5
292719,-112.73,-410.9,1129.11,-19110.0,13282.5,59080.0
292747,27.45,-405.28,1168.03,-1627.5,30502.5,-40232.5
292776,120.78,-404.55,1199.87,38552.5,5407.5,-108465.0
292804,152.74,-412.6,1202.92,62072.5,-5390.0,-134522.5
292833,132.98,-424.32,1176.08,55177.5,-16957.5,-155960.0
292861,33.43,-432.73,1137.53,21017.5,-79257.5,-133542.5
292890,-124.32,-433.71,1123.86,-10552.5,-93240.0,-39445.0
292918,-264.98,-428.34,1132.28,9397.5,-9502.5,50942.5
292947,-351.48,-424.68,1119.72,29592.5,62527.5,109917.5
292975,-385.52,-429.07,1082.87,2135.0,73167.5,139737.5
293004,-374.17,-441.64,1055.18,-35000.0,63017.5,139510.0
293032,-309.64,-452.86,1067.74,-54127.5,57750.0,120172.5
293060,-189.95,-450.42,1127.28,-36662.5,50330.0,70595.0
293089,-47.34,-433.59,1206.34,9765.0,42315.0,-7262.5
293117,65.39,-418.46,1258.31,65275.0,-9712.5,-77542.5
293146,120.54,-421.14,1257.82,77980.0,-60795.0,-123917.5
293174,118.58,-437.25,1225.49,39987.5,-59115.0,-152950.0
293203,43.92,-453.6,1194.38,4847.5,-78627.5,-146247.5
293231,-102.24,-460.92,1180.72,-4917.5,-102270.0,-84525.0
293260,-273.28,-457.26,1172.18,10902.5,-51537.5,1750.0
293289,-411.63,-453.84,1147.78,1330.0,59972.5,91350.0
293317,-480.19,-464.45,1108.74,-34492.5,108535.0,150377.5
293345,-470.92,-486.9,1079.33,-61040.0,52867.5,165900.0
293373,-379.3,-509.59,1099.59,-80220.0,14647.5,142940.0
293402,-218.99,-518.99,1181.69,-57137.5,26320.0,74147.5
293430,-44.9,-515.82,1274.66,24710.0,32182.5,-23257.5
293459,76.49,-520.57,1315.04,93887.5,-14227.5,-108482.5
293487,119.44,-539.24,1289.54,89600.0,-40022.5,-155295.0
293516,72.71,-561.44,1236.35,44047.5,-65257.5,-182682.5
293544,-84.67,-577.91,1201.09,13405.0,-132720.0,-119052.5
293573,-281.58,-581.21,1194.38,577.5,-26845.0,18392.5
293602,-410.9,-575.84,1182.18,10920.0,81200.0,111230.0
293630,-460.79,-573.64,1144.36,-4847.5,83020.0,157745.0
293659,-441.27,-579.99,1123.86,-59692.5,78242.5,180740.0
293687,-345.99,-585.36,1165.22,-77752.5,74725.0,148505.0
293716,-205.08,-579.5,1255.26,-27492.5,95462.5,64260.0
293744,-61.98,-566.08,1327.6,67112.5,29050.0,-51345.0
293773,37.33,-564.86,1334.07,98490.0,-150150.0,-149380.0
293801,49.78,-583.77,1293.08,26967.5,-202527.5,-204225.0
293830,-40.14,-601.7,1277.46,-53952.5,-117617.5,-162522.5
293858,-196.3,-604.14,1295.88,-20860.0,-19792.5,-60917.5
293887,-345.14,-595.48,1300.15,2607.5,33180.0,47635.0
293916,-443.35,-589.26,1278.68,8417.5,85225.0,130830.0
293944,-473.85,-595.24,1243.79,-22820.0,113190.0,181055.0
293972,-430.05,-605.97,1233.66,-59220.0,114205.0,158935.0
294000,-341.84,-610.24,1250.99,-50400.0,34475.0,106820.0
294029,-221.31,-607.32,1304.42,-43785.0,-20160.0,36802.5
294057,-93.09,-599.63,1378.6,34335.0,-3080.0,-61005.0
294086,-3.17,-597.07,1406.05,114625.0,-45465.0,-133980.0
294114,30.99,-606.71,1363.35,109917.5,-111195.0,-192377.5
294143,-46.48,-625.62,1288.08,12915.0,-138425.0,-204365.0
294171,-235.46,-637.69,1270.02,-71925.0,-96705.0,-64400.0
294200,-409.8,-632.69,1294.54,-5180.0,42157.5,79345.0
294229,-504.35,-631.11,1271.97,28945.0,104685.0,157972.5
294257,-512.64,-647.09,1228.3,-37922.5,128835.0,204855.0
294285,-420.66,-657.34,1244.77,-94587.5,136937.5,136027.5
294313,-287.19,-644.53,1321.63,-34737.5,805.0,41125.0
294342,-162.87,-625.01,1399.58,44170.0,-12005.0,-32322.5
294370,-56.61,-614.51,1428.13,104947.5,3150.0,-106190.0
294399,-0.98,-619.27,1389.09,103302.5,-82495.0,-177450.0
294427,-63.68,-637.69,1329.07,21577.5,-168175.0,-190120.0
294456,-249.25,-655.26,1310.52,-36015.0,-120400.0,-76230.0
294484,-435.3,-656.48,1314.43,-7332.5,47495.0,62825.0
294512,-539.48,-654.41,1278.56,11497.5,94465.0,150430.0
294541,-549.0,-670.27,1221.71,-51590.0,81917.5,204207.5
294569,-438.96,-684.91,1222.93,-119122.5,56787.5,140822.5
294597,-266.2,-678.81,1295.4,-65870.0,-46830.0,22382.5
294625,-111.75,-664.05,1379.09,24517.5,-34090.0,-66307.5
294654,0.24,-659.53,1402.88,112507.5,-3657.5,-145267.5
294682,26.96,-673.81,1342.73,100275.0,-56752.5,-197837.5
294711,-93.94,-697.84,1264.53,-6125.0,-109567.5,-159127.5
294739,-299.88,-708.7,1255.99,-77035.0,-71767.5,-3377.5
294768,-456.04,-703.09,1282.46,2100.0,42700.0,107170.0
294797,-523.01,-706.26,1259.89,36592.5,109585.0,179882.5
294825,-478.73,-719.07,1230.13,-42945.0,155732.5,180985.0
294853,-344.28,-715.65,1269.17,-87097.5,114135.0,73045.0
294881,-206.06,-694.67,1374.7,-2502.5,-12355.0,-17500.0
294910,-99.92,-680.03,1453.26,128380.0,-1872.5,-78715.0
294938,-40.63,-677.83,1428.99,168192.5,-45255.0,-131582.5
294967,-82.72,-682.96,1328.82,86905.0,-130725.0,-152915.0
294995,-258.03,-689.42,1245.25,-45027.5,-159425.0,-60025.0
295024,-439.81,-680.03,1252.45,-99470.0,-58975.0,87605.0
295052,-526.06,-664.41,1274.17,11760.0,27282.5,139597.5
295081,-538.02,-664.05,1248.91,34737.5,71225.0,174142.5
295109,-452.86,-664.17,1231.96,-20177.5,103547.5,142887.5
295137,-308.54,-646.6,1257.45,-36470.0,17727.5,45272.5
295166,-165.43,-619.03,1309.3,9765.0,-22942.5,-21070.0
295194,-40.99,-599.39,1325.65,60287.5,-11270.0,-95515.0
295223,24.64,-595.24,1288.32,49700.0,-50820.0,-152617.5
295251,-4.51,-601.7,1243.67,-1767.5,-63700.0,-170135.0
295280,-154.94,-607.68,1226.83,-24150.0,-98245.0,-111335.0
295308,-353.31,-603.17,1242.45,-9502.5,-37607.5,23257.5
295337,-480.31,-592.31,1242.69,25707.5,89915.0,100660.0
295365,-516.55,-586.94,1196.82,8977.5,78365.0,137060.0
295393,-468.85,-584.87,1165.59,-45972.5,37467.5,128415.0
295421,-348.8,-572.91,1200.36,-58905.0,12110.0,81095.0
295449,-188.98,-548.39,1276.61,-4305.0,20107.5,11007.5
295478,-44.77,-525.94,1323.21,67585.0,-9152.5,-74410.0
295506,27.82,-517.89,1303.45,79537.5,-46830.0,-129937.5
295535,1.22,-521.31,1238.54,28525.0,-34142.5,-152757.5
295563,-140.67,-528.26,1191.45,-44082.5,-96792.5,-92592.5
295592,-326.84,-526.67,1214.27,-44992.5,-80640.0,19005.0
295620,-458.35,-523.14,1230.0,54792.5,49017.5,104282.5
295649,-499.96,-532.29,1172.79,30187.5,101027.5,155487.5
295677,-441.88,-545.83,1122.89,-74567.5,61110.0,142537.5
295705,-312.93,-547.78,1163.27,-96442.5,5530.0,76160.0
295734,-160.92,-535.7,1253.92,6860.0,17797.5,6947.5
295762,-23.42,-522.89,1304.06,72870.0,3080.0,-69545.0
295791,62.83,-521.55,1295.03,87482.5,-43312.5,-126262.5
295819,80.76,-531.68,1248.06,58520.0,-47215.0,-148627.5
295848,15.49,-540.22,1199.38,3990.0,-41597.5,-138967.5
295876,-135.54,-538.14,1177.79,-17500.0,-58992.5,-75180.0
295905,-310.86,-522.89,1177.3,-8907.5,-36277.5,18795.0
295933,-432.61,-504.59,1164.86,10797.5,28892.5,91472.5
295961,-486.05,-497.39,1127.77,-6247.5,48440.0,131215.0
295990,-480.44,-501.79,1102.15,-34265.0,36907.5,150237.5
296018,-400.16,-507.28,1116.3,-40215.0,46200.0,130777.5
296047,-255.71,-499.1,1171.69,-25147.5,37292.5,63402.5
296075,-93.7,-478.97,1239.03,24762.5,17832.5,-15032.5
296104,31.23,-465.8,1268.8,66937.5,-29067.5,-89372.5
296132,88.33,-469.58,1247.33,60865.0,-54320.0,-136727.5
296161,72.71,-481.17,1201.21,15085.0,-29505.0,-159215.0
296189,-29.52,-488.37,1161.93,-20947.5,-40390.0,-138145.0
296218,-200.32,-487.88,1150.95,-25970.0,-79310.0,-53427.5
296246,-363.07,-478.97,1164.37,-7490.0,-420.0,38202.5
296274,-457.38,-471.77,1151.44,29627.5,69440.0,100940.0
296303,-486.54,-476.9,1102.88,-4725.0,44065.0,131320.0
296331,-457.13,-488.37,1076.04,-47372.5,14700.0,140770.0
296360,-350.14,-492.88,1105.44,-54215.0,21437.5,111422.5
296388,-185.68,-479.22,1174.13,-12005.0,23712.5,38517.5
296417,-26.72,-458.48,1229.03,46725.0,11532.5,-45447.5
296445,74.79,-452.13,1235.86,74812.5,-32130.0,-111037.5
296474,99.43,-459.7,1206.21,50452.5,-40057.5,-141470.0
296502,40.87,-467.5,1170.83,5932.5,-32270.0,-140665.0
296531,-90.16,-466.65,1148.51,-9835.0,-70735.0,-87920.0
296560,-244.49,-451.89,1135.45,-13422.5,-48790.0,-12040.0
296588,-368.2,-428.46,1121.18,-13457.5,21017.5,55597.5
296617,-441.27,-412.36,1092.63,1627.5,46497.5,99697.5
296645,-473.12,-415.29,1054.69,-18900.0,26547.5,131145.0
296674,-442.37,-430.66,1058.59,-45972.5,25725.0,149012.5
296702,-337.94,-442.25,1103.86,-21787.5,9520.0,102060.0
296731,-196.18,-439.44,1156.19,1907.5,19722.5,35087.5
296760,-59.9,-428.71,1202.55,44765.0,-21560.0,-37327.5
296789,27.57,-421.75,1214.39,71400.0,-55667.5,-92960.0
296818,61.49,-417.48,1182.18,56630.0,-40075.0,-115832.5
296846,50.51,-410.29,1126.91,525.0,-30012.5,-127820.0
296875,-30.5,-401.38,1087.63,-54092.5,-50470.0,-104650.0
296903,-164.94,-389.18,1094.34,-67515.0,-51205.0,-28945.0
296931,-286.21,-372.59,1121.42,-15102.5,7875.0,34195.0
296959,-367.46,-357.95,1119.72,19565.0,59482.5,78312.5
296988,-409.19,-350.63,1090.19,1610.0,65170.0,119017.5
297016,-409.92,-351.48,1076.65,-33477.5,62965.0,132492.5
297045,-377.59,-355.75,1095.8,-34492.5,72870.0,126122.5
297073,-310.0,-358.19,1139.11,-26757.5,81497.5,99837.5
297102,-213.62,-354.04,1196.09,5495.0,9677.5,48527.5
297131,-126.51,-345.26,1241.23,44590.0,-47057.5,-16415.0
297159,-70.03,-337.45,1252.7,68635.0,-46847.5,-54652.5
297188,-34.77,-332.57,1225.61,59255.0,-40337.5,-87482.5
297216,-24.4,-331.23,1175.59,24885.0,-58450.0,-120207.5
297245,-59.9,-329.64,1125.82,-18340.0,-84437.5,-126840.0
297273,-153.96,-323.79,1090.19,-44205.0,-79152.5,-91525.0
297302,-283.53,-311.83,1077.5,-59010.0,-31780.0,-12302.5
297330,-396.62,-296.58,1089.95,-39235.0,5880.0,63682.5
297359,-465.8,-287.43,1100.2,-1120.0,29925.0,103705.0
297387,-498.25,-293.29,1092.39,2502.5,22995.0,139930.0
297416,-466.04,-317.08,1093.73,-19582.5,4690.0,178430.0
297444,-343.92,-343.06,1131.67,-27317.5,8907.5,117670.0
297472,-193.37,-357.7,1181.45,22330.0,-30782.5,31902.5
297501,-69.17,-366.0,1209.02,51572.5,-16782.5,-33162.5
297529,18.91,-371.86,1205.36,66832.5,-1085.0,-82180.0
297558,67.47,-378.69,1169.74,59570.0,-32567.5,-122185.0
297586,73.69,-386.74,1117.28,18952.5,-58940.0,-150587.5
297615,20.62,-390.4,1070.55,-33530.0,-62247.5,-149415.0
297643,-96.26,-383.32,1049.81,-62440.0,-52535.0,-92172.5
297672,-245.95,-367.22,1055.54,-49542.5,-22697.5,-9257.5
297700,-374.54,-349.16,1073.6,-28280.0,39795.0,65677.5
297729,-438.71,-336.72,1082.99,2117.5,67742.5,120767.5
297758,-420.17,-330.25,1100.68,27895.0,-3920.0,127260.0
297786,-352.21,-325.01,1137.89,2660.0,43680.0,99487.5
297815,-255.35,-320.01,1177.3,2765.0,52815.0,80430.0
297843,-136.15,-313.66,1211.58,36050.0,-2362.5,23100.0
297872,-33.18,-307.68,1222.44,51502.5,-3885.0,-33617.5
297900,39.65,-305.98,1204.87,45622.5,-16660.0,-74795.0
297929,75.88,-307.81,1174.49,22382.5,-39847.5,-105910.0
297957,70.15,-306.95,1146.56,-210.0,-37397.5,-116427.5
297986,28.18,-299.63,1120.81,-10132.5,-15715.0,-112175.0
298014,-51.48,-289.14,1091.41,-17552.5,-6720.0,-98210.0
298043,-172.75,-280.36,1064.33,-33722.5,-24955.0,-51975.0
298071,-306.22,-271.94,1050.79,-36260.0,-20440.0,19827.5
298099,-410.29,-268.03,1033.95,-10762.5,2292.5,82320.0
298128,-472.63,-277.55,1006.74,-18882.5,6072.5,125860.0
298156,-481.66,-302.19,994.3,-31920.0,5215.0,155907.5
298185,-415.53,-330.13,1012.84,-34037.5,38727.5,136867.5
298213,-285.11,-345.14,1062.99,-18637.5,26810.0,85487.5
298242,-119.56,-345.63,1131.67,7175.0,21910.0,16345.0
298271,30.13,-342.21,1186.08,49560.0,-332.5,-73640.0
298300,112.24,-347.94,1195.36,78470.0,-37222.5,-130410.0
298328,120.29,-363.8,1161.56,59657.5,-14000.0,-160212.5
298356,48.56,-381.62,1118.74,14455.0,8225.0,-158935.0
298385,-98.82,-392.96,1095.56,6580.0,-12985.0,-99505.0
298413,-269.5,-394.67,1073.23,26565.0,-1505.0,-12302.5
298442,-399.92,-391.38,1025.41,16205.0,26040.0,59640.0
298470,-473.12,-392.84,961.48,-22680.0,19162.5,110827.5
298499,-494.59,-405.89,918.9,-69702.5,12985.0,142222.5
298527,-441.64,-421.88,927.44,-85680.0,21857.5,146457.5
298556,-314.88,-422.85,990.76,-67025.0,4427.5,105980.0
298584,-136.03,-404.55,1086.78,-11007.5,13457.5,26337.5
298613,26.6,-388.69,1160.46,64085.0,-14280.0,-86572.5
298642,103.82,-395.04,1173.15,89477.5,-54215.0,-140507.5
298670,92.96,-419.19,1144.48,42017.5,-22435.0,-163555.0
298699,-25.38,-444.81,1118.5,3920.0,-47162.5,-139160.0
298727,-218.62,-455.55,1115.93,-17.5,-78732.5,-40600.0
298756,-384.3,-450.91,1108.37,28997.5,1575.0,61337.5
298784,-471.29,-447.37,1062.38,21350.0,63787.5,121572.5
298813,-488.98,-451.16,1007.72,-30572.5,43417.5,150010.0
298841,-427.0,-455.3,995.15,-61880.0,27685.0,138932.5
298870,-296.22,-446.03,1042.61,-58117.5,35577.5,77122.5
298898,-137.01,-421.02,1122.77,-7945.0,37520.0,10937.5
298927,6.95,-395.52,1185.35,45657.5,11112.5,-71137.5
298956,89.18,-387.96,1198.65,72292.5,-39672.5,-127137.5
298984,91.26,-399.55,1170.47,39655.0,-39217.5,-156152.5
299013,-9.64,-417.0,1131.67,-3377.5,-70910.0,-139440.0
299041,-188.86,-427.12,1119.84,-28927.5,-115797.5,-41300.0
299069,-351.6,-426.51,1135.7,-1207.5,-20912.5,64365.0
299097,-441.4,-427.73,1122.64,37730.0,71050.0,129097.5
299126,-459.82,-437.13,1076.89,-4147.5,66570.0,156590.0
299154,-407.11,-446.52,1055.79,-49227.5,38045.0,140612.5
299183,-294.26,-445.3,1084.82,-47547.5,17850.0,94745.0
299211,-136.03,-430.29,1144.12,-11270.0,21840.0,41335.0
299239,37.82,-414.43,1195.11,33355.0,10657.5,-55790.0
299268,152.74,-418.22,1208.78,70455.0,-34737.5,-137025.0
299296,170.43,-442.13,1182.79,54985.0,-24710.0,-170397.5
299325,65.39,-470.07,1150.95,2380.0,-28070.0,-171675.0
299353,-152.26,-481.53,1151.31,-7262.5,-95287.5,-67060.0
299382,-347.94,-474.82,1161.68,30695.0,-3115.0,66220.0
299410,-435.3,-467.63,1132.65,40285.0,95200.0,130812.5
299439,-435.91,-464.33,1076.28,-6160.0,74777.5,149205.0
299467,-355.26,-459.45,1056.64,-60847.5,12810.0,124040.0
299496,-209.96,-444.08,1106.05,-53287.5,3500.0,58870.0
299525,-40.99,-421.51,1175.84,13860.0,33337.5,-18007.5
299553,94.67,-410.65,1204.99,56210.0,-8032.5,-105035.0
299582,145.67,-419.56,1188.52,43050.0,-53777.5,-162102.5
299610,83.69,-437.61,1162.42,-8452.5,-52885.0,-173250.0
299639,-99.55,-445.06,1161.56,-28070.0,-102567.5,-96407.5
299667,-298.9,-436.64,1180.47,5880.0,-52272.5,40022.5
299696,-414.43,-426.27,1163.51,37590.0,66745.0,118300.0
299724,-451.52,-424.93,1101.66,-3727.5,62317.5,159740.0
299753,-401.99,-433.34,1068.35,-59167.5,40407.5,157132.5
299781,-267.91,-437.61,1101.66,-52727.5,29312.5,89232.5
299810,-95.4,-430.66,1166.56,-1592.5,10832.5,7770.0
299839,55.75,-426.63,1208.53,46270.0,-5005.0,-79485.0
299867,127.73,-437.37,1200.6,49822.5,-44747.5,-143010.0
299896,80.4,-450.55,1170.1,2642.5,-60847.5,-157307.5
299924,-72.47,-447.37,1167.17,-19512.5,-77892.5,-79170.0
299953,-238.51,-430.05,1183.16,10325.0,-12512.5,20930.0
299981,-346.24,-411.63,1170.35,32497.5,61407.5,88707.5
300010,-390.4,-400.65,1121.06,11060.0,78680.0,127680.0
300038,-371.0,-398.45,1077.26,-42140.0,43837.5,138250.0
300067,-279.87,-398.33,1087.87,-67532.5,2240.0,107047.5
300095,-132.61,-392.84,1149.73,-25935.0,-4095.0,39882.5
300123,26.84,-385.76,1207.43,38395.0,8400.0,-44117.5
300152,144.45,-388.08,1220.24,56105.0,-44642.5,-122307.5
300180,181.05,-403.58,1199.63,21350.0,-51362.5,-166565.0
300209,119.32,-425.05,1178.28,-13965.0,-20300.0,-170432.5
300237,-46.85,-435.42,1170.1,-14332.5,-65905.0,-111510.0
300266,-252.3,-429.2,1171.32,6440.0,-60935.0,14612.5
300294,-393.69,-425.66,1150.83,31395.0,47530.0,126017.5
300323,-433.83,-438.71,1098.73,-8890.0,86310.0,179777.5
300351,-363.56,-460.55,1074.09,-65362.5,43487.5,161822.5
300380,-207.64,-472.75,1116.3,-61845.0,-27440.0,84350.0
300408,-3.9,-473.85,1190.96,1995.0,-26915.0,-4042.5
300436,167.75,-478.48,1226.59,79047.5,-18200.0,-120662.5
300464,231.43,-492.88,1197.19,66937.5,-26705.0,-170800.0
300492,182.76,-511.06,1147.04,-630.0,-5600.0,-178360.0
300521,9.03,-517.16,1131.79,-31307.5,-54355.0,-110617.5
300549,-198.86,-507.28,1153.88,350.0,-39357.5,26407.5
300578,-333.06,-499.22,1151.07,31762.5,48405.0,115535.0
300606,-387.72,-504.35,1105.93,-5285.0,57085.0,168735.0
300635,-353.19,-524.36,1074.94,-52710.0,30187.5,192605.0
300663,-200.32,-545.83,1101.54,-64137.5,17360.0,130077.5
300692,14.27,-553.39,1165.47,-857.5,35455.0,14192.5
300721,182.51,-556.69,1200.97,59692.5,8820.0,-90860.0
300749,253.52,-567.54,1186.45,49245.0,-43837.5,-154472.5
300778,219.84,-579.26,1160.71,4795.0,-23957.5,-175927.5
300806,77.59,-576.69,1150.58,-577.5,-42490.0,-141435.0
300835,-117.61,-554.25,1155.71,12757.5,-50505.0,-30555.0
300863,-269.13,-526.8,1144.12,26740.0,16030.0,71645.0
300892,-347.7,-512.16,1102.03,-2240.0,47040.0,132545.0
300920,-358.8,-514.11,1070.92,-38640.0,31990.0,159215.0
300949,-274.5,-524.36,1088.0,-43662.5,21822.5,141767.5
300977,-104.8,-528.5,1141.07,-3780.0,7297.5,54617.5
301005,81.98,-522.4,1182.91,37502.5,2712.5,-37537.5
301034,217.53,-516.91,1178.28,50610.0,-29610.0,-121152.5
301062,256.93,-519.96,1137.53,10640.0,-49035.0,-164850.0
301091,186.9,-527.16,1109.22,-37835.0,-28735.0,-158707.5
301119,17.57,-524.11,1130.21,-37817.5,-80150.0,-91455.0
301148,-170.68,-507.28,1176.45,22767.5,-34387.5,23747.5
301176,-292.56,-493.86,1173.64,51957.5,82110.0,112402.5
301205,-333.3,-493.0,1116.06,-770.0,83090.0,160247.5
301234,-289.02,-501.18,1077.99,-55457.5,15470.0,159547.5
301262,-160.06,-511.42,1096.54,-46410.0,-6265.0,110652.5
301290,26.96,-515.82,1140.46,-4637.5,10762.5,25655.0
301318,197.4,-518.62,1169.0,24237.5,1662.5,-75635.0
301347,284.5,-529.6,1174.25,27475.0,-13842.5,-137147.5
301375,284.26,-544.85,1165.34,24517.5,665.0,-169330.0
301404,170.19,-551.93,1150.95,17045.0,-44117.5,-165847.5
301432,-39.53,-541.07,1150.22,10342.5,-74672.5,-60392.5
301461,-226.07,-520.21,1152.66,21980.0,20842.5,65187.5
301489,-321.59,-510.08,1118.25,13947.5,87552.5,139072.5
301518,-328.42,-516.67,1067.62,-38535.0,68320.0,161805.0
301546,-235.09,-532.16,1073.36,-79030.0,19092.5,140315.0
301574,-58.68,-539.61,1147.78,-32462.5,6737.5,52430.0
301603,122.98,-535.34,1214.39,44030.0,13212.5,-48370.0
301631,237.78,-533.99,1221.34,67637.5,-18060.0,-126857.5
301660,261.69,-539.85,1184.13,42420.0,-20002.5,-165410.0
301688,174.95,-545.1,1142.77,-9240.0,-10552.5,-164272.5
301717,-9.76,-538.14,1128.99,-8890.0,-46567.5,-86572.5
301745,-198.01,-518.87,1125.69,11847.5,-5390.0,27912.5
301774,-312.08,-501.18,1098.12,13370.0,63280.0,106715.0
301802,-355.39,-494.47,1053.35,-20212.5,53042.5,136360.0
301830,-345.99,-500.57,1031.14,-46637.5,11515.0,142782.5
301858,-265.59,-509.96,1053.59,-45745.0,14280.0,125265.0
301886,-117.0,-508.25,1109.71,-13247.5,6772.5,56665.0
301915,48.07,-496.78,1161.2,35437.5,-8802.5,-29960.0
301943,168.6,-488.85,1174.86,46795.0,-53287.5,-106855.0
301972,212.65,-491.66,1162.42,15802.5,-70472.5,-147822.5
302000,182.76,-499.83,1150.95,-13405.0,-33985.0,-159197.5
302029,59.29,-501.42,1134.97,-14262.5,-63647.5,-140105.0
302057,-128.83,-493.0,1134.97,-24045.0,-108167.5,-28542.5
302086,-275.35,-482.27,1167.54,9590.0,-1137.5,73517.5
302115,-337.21,-478.48,1172.54,48282.5,89477.5,120575.0
302143,-317.2,-477.26,1147.78,20125.0,64102.5,139405.0
302172,-215.82,-468.36,1151.19,-24202.5,40810.0,114012.5
302200,-58.19,-450.06,1194.87,-15680.0,33232.5,50277.5
302229,96.87,-430.17,1235.62,45867.5,4550.0,-36050.0
302258,193.0,-416.87,1233.3,62282.5,-23485.0,-96320.0
302287,222.77,-408.21,1197.67,34527.5,-35245.0,-123322.5
302315,178.97,-403.7,1159.37,-13002.5,-39550.0,-128660.0
302344,50.26,-396.26,1145.34,-38832.5,-78190.0,-82670.0
302372,-109.31,-380.4,1158.15,-3307.5,-45692.5,6282.5
302400,-225.82,-365.39,1157.54,32970.0,54302.5,81725.0
302429,-279.99,-359.29,1119.35,13020.0,96810.0,127820.0
302457,-274.13,-360.63,1083.12,-41772.5,76825.0,134347.5
302486,-212.28,-362.46,1089.34,-64802.5,28087.5,107677.5
302514,-108.95,-358.19,1130.57,-36750.0,437.5,69247.5
302543,23.18,-348.92,1178.15,-5407.5,20142.5,1697.5
302572,132.49,-341.48,1208.04,21157.5,-12582.5,-77770.0
302601,184.46,-341.97,1212.19,29435.0,-31150.0,-115150.0
302629,188.61,-350.14,1196.58,21262.5,-10727.5,-140612.5
302657,126.15,-358.19,1168.76,822.5,-34772.5,-144392.5
302686,-14.4,-357.7,1142.65,-12425.0,-83860.0,-88742.5
302714,-185.2,-348.55,1135.82,-12915.0,-44677.5,20877.5
302743,-308.66,-344.53,1135.58,12302.5,62755.0,115255.0
302771,-344.53,-353.31,1113.25,14017.5,101482.5,156625.0
302800,-299.27,-364.17,1095.8,-6632.5,595.0,135905.0
302828,-198.13,-367.59,1121.91,-43050.0,21875.0,93187.5
302857,-57.34,-366.0,1177.06,-6982.5,27527.5,33285.0
302886,74.42,-365.15,1220.37,36750.0,-4672.5,-55300.0
302915,149.45,-370.15,1225.12,52762.5,-25655.0,-108430.0
302943,168.73,-377.1,1198.65,35840.0,-31272.5,-139107.5
302971,121.02,-380.27,1162.78,1365.0,-49052.5,-148995.0
303000,-5.86,-374.05,1139.48,-23625.0,-88252.5,-98507.5
303028,-165.68,-356.36,1142.41,-13842.5,-41475.0,1452.5
303057,-285.97,-339.89,1149.24,23345.0,63070.0,83755.0
303085,-341.97,-333.43,1128.62,21612.5,118090.0,120680.0
303114,-349.29,-337.45,1088.48,-24290.0,71242.5,127802.5
303142,-294.26,-349.65,1079.82,-78785.0,8207.5,123340.0
303171,-172.14,-360.02,1134.11,-68075.0,7595.0,73010.0
303200,-26.23,-364.9,1203.53,9940.0,21175.0,-5845.0
303228,87.47,-371.86,1231.83,54127.5,-6002.5,-86187.5
303257,136.88,-384.3,1219.27,53200.0,-32882.5,-127977.5
303285,123.83,-396.13,1184.62,26845.0,-33495.0,-148295.0
303314,36.36,-398.09,1154.36,-15977.5,-73885.0,-131740.0
303342,-114.07,-389.3,1149.48,-24920.0,-82267.5,-59587.5
303371,-264.25,-374.66,1162.42,1347.5,-10710.0,34055.0
303399,-358.92,-363.07,1157.05,31167.5,80430.0,99067.5
303428,-399.18,-362.34,1114.96,9800.0,91577.5,129780.0
303456,-398.94,-375.76,1072.38,-47285.0,26950.0,151900.0
303485,-340.75,-399.92,1077.75,-86677.5,8365.0,138967.5
303513,-223.63,-419.56,1131.18,-59290.0,32060.0,75250.0
303541,-80.76,-428.34,1192.79,7752.5,10535.0,-5162.5
303570,38.67,-433.34,1222.32,53060.0,7350.0,-84507.5
303598,101.26,-440.18,1206.34,62702.5,-22137.5,-140350.0
303627,90.04,-448.47,1167.66,29330.0,-44415.0,-167230.0
303655,-17.2,-453.11,1138.02,-12197.5,-97300.0,-139720.0
303684,-187.39,-450.3,1141.55,-17132.5,-113487.5,-35822.5
303712,-337.7,-443.23,1165.1,13860.0,4637.5,70035.0
303741,-421.88,-445.42,1162.05,33477.5,105367.5,143937.5
303769,-434.44,-462.26,1128.62,-5005.0,118230.0,171500.0
303798,-366.0,-485.07,1107.88,-66115.0,41440.0,138880.0
303826,-225.94,-501.3,1143.63,-77052.5,-66675.0,64732.5
303854,-66.37,-509.35,1211.7,4515.0,-7052.5,-8312.5
303883,60.63,-518.5,1234.03,67900.0,35420.0,-84787.5
303911,118.83,-536.92,1204.02,51660.0,-6352.5,-141732.5
303940,98.33,-556.32,1176.93,21805.0,-50855.0,-158322.5
303968,10.25,-560.71,1168.52,-17605.0,-56350.0,-146597.5
303997,-133.71,-548.02,1173.27,-3920.0,-98035.0,-83947.5
304025,-277.92,-521.92,1186.33,26495.0,-19582.5,16625.0
304054,-364.54,-495.2,1172.18,44485.0,101937.5,87552.5
304082,-399.18,-478.73,1124.23,6160.0,117617.5,121695.0
304110,-398.94,-475.31,1083.36,-44012.5,56507.5,132265.0
304138,-356.24,-483.85,1086.53,-66360.0,28945.0,122325.0
304166,-259.25,-494.71,1133.38,-49927.5,37275.0,78470.0
304195,-132.37,-500.44,1195.6,-14542.5,39865.0,3482.5
304223,-24.77,-503.86,1242.94,31360.0,17115.0,-68617.5
304252,30.13,-513.13,1256.11,66570.0,-41072.5,-120942.5
304280,28.79,-524.36,1240.62,61740.0,-71820.0,-153667.5
304309,-31.96,-527.16,1208.29,39882.5,-77927.5,-166460.0
304337,-168.6,-521.92,1169.49,5215.0,-71837.5,-112665.0
304366,-336.6,-510.2,1151.8,-22242.5,-23432.5,11217.5
304394,-455.43,-499.59,1146.07,11917.5,64225.0,105350.0
304422,-507.52,-499.71,1114.35,11690.0,99820.0,151095.0
304451,-498.49,-510.57,1083.6,-49437.5,82180.0,160562.5
304479,-428.71,-524.48,1103.61,-83177.5,73500.0,124792.5
304508,-317.93,-533.63,1174.74,-56892.5,38500.0,61897.5
304536,-196.05,-534.6,1260.14,7892.5,11847.5,-16870.0
304565,-94.55,-534.6,1301.62,86852.5,-44240.0,-103880.0
304593,-41.24,-544.61,1277.46,92435.0,-142362.5,-177117.5
304622,-83.45,-565.23,1228.54,11637.5,-185307.5,-194232.5
304650,-219.6,-576.08,1227.93,-64470.0,-109847.5,-76737.5
304678,-350.87,-562.91,1260.5,-13037.5,58047.5,37082.5
304707,-428.22,-541.92,1250.01,32637.5,111755.0,94395.0
304735,-468.72,-529.72,1205.6,-3342.5,103950.0,142117.5
304764,-465.43,-529.48,1180.47,-51292.5,105437.5,159792.5
304792,-408.82,-533.14,1189.74,-61477.5,113750.0,126350.0
304821,-326.96,-530.7,1225.61,-53130.0,75320.0,46935.0
304849,-252.3,-521.43,1281.0,-2887.5,10255.0,-17990.0
304878,-183.0,-514.96,1316.87,72520.0,-39147.5,-92435.0
304906,-138.84,-523.14,1309.91,92050.0,-151725.0,-178937.5
304935,-178.61,-544.24,1289.05,43120.0,-221672.5,-198467.5
304963,-313.78,-555.34,1288.93,-7577.5,-128275.0,-91560.0
304991,-448.96,-545.22,1296.01,6912.5,55720.0,45062.5
305020,-522.53,-528.75,1266.36,21280.0,111790.0,110950.0
305048,-551.81,-527.04,1208.53,-20702.5,76685.0,159407.5
305077,-521.06,-545.1,1186.08,-83790.0,94010.0,169662.5
305105,-426.76,-563.27,1223.05,-92802.5,104492.5,111387.5
305134,-303.78,-565.84,1298.32,-40967.5,16257.5,12337.5
305162,-194.96,-566.57,1365.3,64942.5,-55422.5,-94990.0
305191,-131.76,-579.38,1377.14,122780.0,-99225.0,-164272.5
305219,-128.47,-599.75,1340.78,104842.5,-111877.5,-197732.5
305248,-215.45,-613.42,1287.71,35735.0,-110687.5,-165865.0
305276,-367.22,-606.83,1260.5,-30117.5,-73377.5,-38062.5
305304,-498.49,-586.33,1259.89,-17990.0,15522.5,69667.5
305333,-577.55,-575.96,1239.89,11410.0,62702.5,140945.0
305361,-607.68,-590.36,1202.07,-17342.5,78102.5,195895.0
305390,-568.03,-624.4,1190.48,-69002.5,104002.5,201705.0
305418,-436.03,-651.97,1226.34,-90107.5,103425.0,129587.5
305447,-254.74,-660.87,1298.08,-44852.5,-3167.5,-9450.0
305475,-105.16,-671.12,1376.89,44887.5,-61757.5,-121730.0
305504,-28.06,-701.38,1402.76,131915.0,-69037.5,-191030.0
305532,-32.57,-737.49,1360.3,107152.5,-86992.5,-214165.0
305561,-130.42,-754.94,1296.01,23782.5,-68985.0,-167422.5
305589,-290.12,-747.13,1257.33,-46795.0,-54145.0,-49770.0
305617,-434.44,-722.0,1263.43,-45710.0,-8277.5,57837.5
305646,-526.06,-700.65,1265.38,16537.5,59570.0,129290.0
305674,-572.79,-697.35,1235.74,6965.0,90965.0,191450.0
305703,-548.76,-712.24,1218.54,-42927.5,103932.5,220762.5
305731,-434.08,-729.32,1240.74,-59920.0,124687.5,140525.0
305760,-284.63,-734.44,1297.35,-35227.5,980.0,30747.5
305789,-159.58,-734.93,1365.79,18637.5,-31902.5,-56122.5
305818,-74.18,-743.22,1393.24,86187.5,-16117.5,-125090.0
305846,-37.45,-758.84,1368.35,84017.5,-56192.5,-184485.0
305875,-79.42,-770.06,1330.65,41615.0,-112315.0,-196927.5
305903,-207.4,-763.72,1306.62,5617.5,-135642.5,-130252.5
305931,-367.71,-735.17,1303.69,7910.0,-56385.0,-7245.0
305960,-487.51,-699.06,1299.54,21350.0,63070.0,88077.5
305988,-548.39,-671.98,1264.65,21822.5,109550.0,141365.0
306017,-561.69,-660.63,1210.85,-15015.0,61250.0,169120.0
306045,-519.84,-664.9,1185.72,-56805.0,17745.0,166022.5
306074,-406.38,-673.68,1210.85,-63472.5,47442.5,114450.0
306102,-247.29,-673.56,1269.78,-25952.5,14000.0,14875.0
306131,-101.02,-669.9,1322.11,41177.5,-9135.0,-80377.5
306159,-9.27,-675.76,1321.75,91717.5,-26162.5,-149817.5
306188,5.37,-683.81,1273.44,74567.5,-48405.0,-177187.5
306217,-67.1,-680.76,1218.54,14560.0,-44082.5,-161367.5
306245,-219.6,-663.31,1189.01,-37922.5,-77175.0,-90947.5
306273,-389.67,-633.79,1194.87,-36732.5,-80395.0,21752.5
306301,-507.28,-607.68,1201.7,5302.5,25812.5,105280.0
306330,-559.0,-599.39,1174.25,13930.0,89040.0,155522.5
306358,-544.24,-609.27,1136.31,-29732.5,64417.5,168140.0
306387,-455.06,-626.23,1123.01,-62230.0,9275.0,133630.0
306415,-309.76,-640.5,1152.41,-57592.5,-39707.5,69300.0
306444,-136.76,-649.04,1213.78,-6895.0,-5967.5,-6982.5
306473,11.47,-657.7,1253.92,51502.5,6387.5,-105087.5
306501,81.37,-671.49,1251.23,64820.0,-39550.0,-160422.5
306531,69.91,-682.96,1224.03,48597.5,-30712.5,-176820.0
306559,-28.18,-680.27,1187.06,14087.5,-56910.0,-147087.5
306588,-191.91,-656.85,1172.3,-29732.5,-94220.0,-52605.0
306616,-344.16,-620.86,1195.36,-20965.0,-40425.0,46637.5
306645,-438.47,-593.77,1206.58,40740.0,56070.0,111562.5
306673,-471.77,-586.82,1178.28,37712.5,73482.5,155330.0
306702,-439.2,-593.77,1148.51,-7630.0,50575.0,159530.0
306730,-335.74,-601.83,1153.27,-29855.0,36242.5,119577.5
306759,-187.39,-598.65,1188.65,-4917.5,37450.0,49192.5
306788,-33.43,-585.6,1220.73,37222.5,51292.5,-30817.5
306816,74.42,-575.72,1225.12,51187.5,-11970.0,-103005.0
306845,112.24,-574.5,1216.71,30485.0,-54565.0,-131687.5
306873,93.7,-577.43,1208.53,24132.5,-37835.0,-149765.0
306902,17.08,-571.2,1198.28,17797.5,-63945.0,-131880.0
306930,-109.07,-546.93,1186.45,9817.5,-70175.0,-73307.5
306959,-242.29,-511.18,1177.79,3045.0,-20177.5,13247.5
306987,-337.94,-479.22,1165.59,8452.5,50610.0,77787.5
307016,-391.99,-463.23,1134.23,2712.5,37187.5,118982.5
307044,-411.14,-463.36,1106.3,-23695.0,18042.5,139825.0
307073,-376.0,-473.85,1102.27,-33285.0,27615.0,146387.5
307101,-260.59,-484.83,1125.08,-37292.5,25882.5,110337.5
307129,-84.55,-487.27,1170.59,-15925.0,21227.5,24762.5
307158,82.47,-483.61,1210.61,27055.0,9992.5,-71732.5
307186,179.22,-485.93,1213.17,52937.5,-25322.5,-141120.0
307215,183.85,-498.0,1183.16,32970.0,-39742.5,-173407.5
307243,72.35,-502.4,1155.34,-6597.5,-52062.5,-151217.5
307272,-118.1,-486.66,1154.36,-7105.0,-78172.5,-40652.5
307300,-276.82,-463.11,1163.39,15697.5,14962.5,58660.0
307329,-356.61,-448.96,1141.55,29417.5,77857.5,112980.0
307357,-374.78,-447.5,1094.95,-9047.5,49087.5,136202.5
307386,-342.45,-453.96,1070.43,-50557.5,14472.5,138722.5
307414,-268.77,-461.65,1087.14,-46392.5,11550.0,118282.5
307442,-149.45,-466.28,1127.65,-4882.5,48772.5,74077.5
307471,-10.25,-463.23,1165.71,11707.5,30625.0,-15942.5
307499,95.04,-456.52,1192.67,13090.0,-40915.0,-75635.0
307528,152.5,-456.77,1204.87,27457.5,-39795.0,-119647.5
307556,155.67,-460.06,1199.14,32112.5,-28980.0,-149432.5
307585,85.64,-457.74,1182.91,19600.0,-46252.5,-153230.0
307613,-69.42,-441.76,1169.37,10447.5,-73762.5,-90685.0
307642,-247.9,-415.78,1165.83,14647.5,-29382.5,25935.0
307670,-370.03,-400.89,1145.34,36207.5,45832.5,112997.5
307698,-416.75,-409.43,1098.37,4375.0,66167.5,170957.5
307727,-365.76,-436.27,1069.7,-48247.5,23957.5,190960.0
307755,-183.49,-463.36,1102.39,-57680.0,-28857.5,117180.0
307783,50.39,-476.04,1164.0,15242.5,-14595.0,-32235.0
307811,213.99,-484.22,1182.91,72572.5,-14157.5,-130357.5
307840,276.21,-499.47,1152.9,55755.0,-29785.0,-172217.5
307868,241.07,-516.79,1112.15,2065.0,-13422.5,-179112.5
307897,91.87,-519.72,1101.29,-42140.0,-45202.5,-140105.0
307925,-105.9,-498.98,1133.5,-13895.0,-66675.0,-7402.5
307954,-244.61,-474.58,1149.0,42052.5,13720.0,75827.5
307982,-311.83,-464.82,1111.18,24535.0,61495.0,131442.5
308011,-310.25,-468.6,1070.55,-34352.5,52325.0,159670.0
308039,-224.72,-476.29,1077.26,-57225.0,50137.5,134767.5
308067,-69.66,-475.31,1130.21,-26670.0,51975.0,67865.0
308096,99.55,-463.97,1189.38,22312.5,46095.0,-20965.0
308124,213.38,-452.62,1218.05,56577.5,-9625.0,-99732.5
308153,244.49,-447.98,1205.12,66657.5,-37642.5,-137007.5
308181,192.76,-445.3,1163.88,30887.5,-31500.0,-154000.0
308210,43.8,-431.27,1126.79,-6527.5,-81602.5,-103127.5
308238,-137.01,-405.04,1118.01,-12600.0,-55842.5,18235.0
308267,-256.57,-385.4,1105.08,15592.5,48597.5,99872.5
308295,-306.34,-383.69,1061.28,-12687.5,67725.0,140560.0
308324,-305.85,-396.01,1029.19,-61845.0,23275.0,154455.0
308352,-238.63,-413.95,1047.49,-64505.0,9992.5,144217.5
308381,-103.46,-426.27,1100.93,-23397.5,19215.0,71557.5
308409,57.95,-430.29,1150.34,18585.0,28052.5,-6510.0
308438,198.49,-434.2,1175.84,31675.0,6510.0,-89670.0
308467,274.01,-447.01,1177.54,32970.0,-38832.5,-150815.0
308495,272.79,-466.16,1163.76,17412.5,-34177.5,-183312.5
308523,175.44,-478.36,1149.97,-5705.0,-61512.5,-181090.0
308551,-9.52,-471.04,1154.49,-12880.0,-89442.5,-81147.5
308580,-188.61,-449.45,1170.59,20475.0,-8995.0,39620.0
308608,-296.46,-436.39,1155.22,42805.0,77245.0,118702.5
308637,-334.77,-440.66,1105.56,1347.5,76125.0,159162.5
308665,-312.32,-455.79,1076.41,-47705.0,46865.0,161157.5
308694,-218.38,-474.34,1093.36,-53970.0,41107.5,134295.0
308722,-52.22,-489.46,1144.36,-41615.0,17920.0,60970.0
308751,120.29,-499.83,1206.46,7262.5,13475.0,-55930.0
308780,226.92,-516.67,1238.06,67952.5,-12162.5,-135065.0
308809,257.91,-539.97,1228.54,72327.5,-18620.0,-177677.5
308837,215.45,-557.66,1195.6,45867.5,-16170.0,-193970.0
308866,80.64,-558.52,1155.34,15050.0,-64242.5,-154087.5
308895,-115.78,-537.65,1130.82,-11235.0,-80867.5,-33267.5
308923,-277.79,-511.79,1129.11,-7245.0,14875.0,78522.5
308952,-365.51,-499.35,1111.18,16992.5,70945.0,138635.0
308980,-395.28,-504.84,1067.99,-23432.5,40740.0,167877.5
309009,-371.61,-524.36,1048.71,-58170.0,14245.0,165585.0
309037,-287.8,-548.39,1074.09,-52885.0,25900.0,148680.0
309066,-133.96,-566.08,1128.74,-20632.5,43400.0,83300.0
309094,39.89,-573.16,1188.89,18357.5,26880.0,-27265.0
309123,160.43,-578.52,1224.15,53620.0,-24412.5,-110425.0
309151,206.18,-588.28,1226.59,53392.5,-59972.5,-161840.0
309180,177.51,-598.04,1213.66,33162.5,-48405.0,-186025.0
309208,54.66,-596.34,1198.77,20387.5,-71820.0,-164657.5
309237,-139.93,-572.55,1190.35,19495.0,-68862.5,-57942.5
309265,-305.73,-540.34,1177.91,35210.0,21560.0,63192.5
309293,-390.28,-521.79,1137.65,23100.0,85785.0,133175.0
309322,-410.16,-521.55,1092.14,-34930.0,76265.0,162102.5
309350,-372.22,-533.14,1084.58,-67672.5,58922.5,156730.0
309379,-264.01,-547.05,1126.55,-60970.0,45447.5,125912.5
309407,-91.62,-551.68,1201.58,-20335.0,45692.5,33862.5
309436,64.66,-546.8,1260.14,40687.5,-5127.5,-76370.0
309464,142.5,-545.34,1264.9,66587.5,-76282.5,-133945.0
309493,145.42,-548.51,1232.93,26705.0,-66307.5,-159442.5
309521,78.45,-546.07,1203.65,-13860.0,-26565.0,-150780.0
309550,-58.68,-530.33,1196.09,-14210.0,-56630.0,-98840.0
309578,-219.72,-505.08,1197.8,16782.5,-52500.0,1627.5
309607,-334.28,-482.63,1179.74,32235.0,35595.0,85680.0
309636,-384.06,-472.63,1137.28,3972.5,71522.5,134225.0
309665,-373.08,-475.31,1107.52,-44415.0,55142.5,143535.0
309693,-300.85,-482.51,1124.72,-62492.5,45570.0,121590.0
309721,-169.82,-484.58,1187.18,-29487.5,37257.5,66185.0
309750,-22.45,-477.87,1253.06,33057.5,23030.0,-25147.5
309778,74.05,-468.72,1276.49,76387.5,-35052.5,-98367.5
309807,86.13,-459.94,1247.08,73150.0,-72047.5,-129447.5
309835,-3.17,-443.59,1206.34,19740.0,-86660.0,-112000.0
309864,-155.92,-413.82,1195.36,7525.0,-72187.5,-21927.5
309892,-283.53,-381.13,1179.74,40897.5,3097.5,66307.5
309921,-348.8,-361.61,1132.4,15802.5,67217.5,124372.5
309949,-356.97,-359.78,1089.22,-37450.0,80150.0,149502.5
309978,-307.56,-368.2,1085.07,-58362.5,66447.5,135362.5
310006,-215.09,-375.52,1115.32,-39637.5,46462.5,84052.5
310035,-91.01,-378.08,1154.73,-18760.0,27265.0,34877.5
310064,41.48,-378.2,1194.62,-14945.0,15330.0,-43382.5
310093,124.93,-379.79,1225.86,17325.0,-28210.0,-105245.0
310121,144.45,-383.81,1232.44,40810.0,-32672.5,-137007.5
310149,108.82,-385.64,1208.29,37817.5,-28437.5,-155942.5
310178,-2.68,-377.1,1173.27,4007.5,-75600.0,-133000.0
310206,-164.94,-355.26,1155.22,-9415.0,-59657.5,-32427.5
310235,-289.87,-333.3,1140.21,6842.5,35805.0,67585.0
310263,-352.7,-324.4,1108.98,-8137.5,62755.0,117040.0
310292,-366.0,-331.11,1085.31,-39182.5,37012.5,142117.5
310320,-326.59,-348.07,1092.14,-36732.5,33932.5,125930.0
310349,-219.48,-366.98,1128.26,-25707.5,25130.0,91892.5
310377,-51.0,-381.37,1187.43,-945.0,8207.5,7682.5
310406,103.21,-393.08,1233.18,50557.5,-16485.0,-90667.5
310434,185.93,-410.9,1231.71,61495.0,-48072.5,-156257.5
310463,186.05,-434.81,1197.19,20895.0,-37800.0,-189770.0
310491,80.52,-452.5,1168.15,-16292.5,-57312.5,-173005.0
310520,-106.87,-450.91,1167.54,-16345.0,-71645.0,-69615.0
310548,-279.99,-436.52,1178.03,18165.0,2152.5,45237.5
310576,-382.23,-427.49,1157.29,35542.5,55160.0,123147.5
310605,-408.46,-432.61,1111.91,-4777.5,42665.0,169540.0
310633,-342.82,-446.64,1098.73,-41947.5,33600.0,152705.0
310662,-201.06,-454.94,1138.02,-25725.0,14490.0,80955.0
310690,-25.62,-453.96,1194.62,22855.0,24500.0,-1610.0
310719,124.07,-451.28,1220.0,59832.5,-8137.5,-93695.0
310747,191.91,-453.72,1199.5,42682.5,-49017.5,-150552.5
310776,162.02,-459.33,1166.69,-7385.0,-28525.0,-168297.5
310804,28.55,-456.04,1150.95,-19425.0,-63927.5,-129430.0
310833,-155.43,-439.69,1154.97,-1312.5,-56105.0,-21332.5
310861,-296.7,-421.88,1146.92,22172.5,40915.0,79100.0
310890,-363.56,-416.02,1104.34,-1680.0,65187.5,133770.0
310918,-371.73,-424.44,1071.28,-47390.0,19862.5,151322.5
310946,-316.22,-439.57,1085.92,-46865.0,19022.5,134855.0
310974,-190.56,-449.2,1135.58,-12740.0,28262.5,87657.5
311002,-16.35,-447.37,1191.82,22172.5,22942.5,8400.0
311031,135.91,-440.54,1219.63,59360.0,-18077.5,-87237.5
311059,208.38,-439.93,1196.82,59780.0,-47022.5,-140087.5
311088,195.44,-447.25,1143.26,5407.5,-12337.5,-160632.5
311116,76.62,-453.35,1107.27,-44432.5,-40145.0,-137322.5
311145,-105.65,-447.5,1119.72,-38325.0,-78732.5,-29977.5
311173,-250.47,-432.98,1139.48,18987.5,14525.0,58800.0
311202,-327.94,-423.22,1111.66,24587.5,65922.5,112700.0
311230,-349.53,-425.29,1068.84,-29172.5,20387.5,143097.5
311259,-306.46,-435.05,1067.26,-49595.0,5897.5,134697.5
311287,-195.44,-441.76,1105.32,-19652.5,19547.5,92085.0
311316,-35.62,-438.59,1155.34,11025.0,31727.5,23887.5
311345,114.68,-430.66,1184.38,46130.0,3097.5,-65800.0
311373,193.13,-428.71,1172.66,46777.5,-37432.5,-123917.5
311401,188.12,-433.34,1145.95,5687.5,-21560.0,-141382.5
311429,101.38,-436.03,1137.53,-16100.0,-44327.5,-134837.5
311457,-45.26,-426.39,1147.65,10062.5,-73465.0,-67830.0
311485,-178.73,-405.04,1150.09,28647.5,5722.5,20615.0
311514,-253.52,-383.32,1123.74,27142.5,38920.0,73377.5
311542,-284.02,-368.56,1080.43,-5320.0,12810.0,99487.5
311571,-279.26,-362.58,1058.84,-34860.0,10920.0,111650.0
311599,-232.65,-360.39,1070.55,-29522.5,33862.5,102217.5
311628,-148.47,-354.78,1097.02,-10972.5,22925.0,69632.5
311656,-44.41,-341.6,1126.43,2607.5,17902.5,27930.0
311685,60.51,-324.89,1147.29,17220.0,12950.0,-29260.0
311714,128.1,-311.34,1150.22,24062.5,-19915.0,-82302.5
311743,127.73,-300.0,1136.31,22400.0,-20125.0,-106295.0
311771,44.16,-284.75,1112.4,14875.0,-49700.0,-99435.0
311800,-100.41,-263.28,1094.83,2170.0,-66850.0,-18375.0
311829,-219.23,-245.22,1081.9,9940.0,11410.0,75827.5
311857,-265.23,-241.56,1048.71,1137.5,60585.0,118632.5
311886,-248.64,-252.05,1014.31,-45377.5,44782.5,125177.5
311914,-177.51,-269.74,1021.14,-68197.5,28997.5,95935.0
311943,-66.37,-286.21,1066.77,-35525.0,18095.0,43767.5
311971,59.54,-298.9,1117.52,5915.0,17797.5,-26582.5
312000,154.45,-312.81,1146.07,30625.0,-8382.5,-97107.5
312028,181.78,-328.91,1150.7,38447.5,-20930.0,-130707.5
312057,140.54,-339.04,1136.55,41667.5,-1540.0,-137270.0
312085,24.89,-334.52,1110.81,28892.5,-44030.0,-103617.5
312114,-121.63,-314.64,1099.22,4812.5,-34020.0,-14595.0
312142,-226.68,-288.9,1089.83,23730.0,26215.0,49542.5
312171,-282.31,-270.35,1054.32,17097.5,42490.0,89722.5
312200,-295.24,-264.25,1013.33,-21402.5,32532.5,113522.5
312229,-253.76,-268.16,1002.84,-51467.5,29942.5,108657.5
312257,-151.52,-277.06,1037.49,-48825.0,17990.0,69282.5
312285,-17.57,-284.5,1094.83,-13667.5,16852.5,-1977.5
312314,88.33,-290.36,1131.92,24850.0,-12880.0,-75390.0
312342,131.88,-298.41,1136.67,28822.5,-31815.0,-120190.0
312371,115.17,-304.51,1131.31,14017.5,-16922.5,-137865.0
312399,40.26,-303.54,1123.25,19757.5,-43715.0,-134645.0
312428,-91.13,-291.46,1107.03,21875.0,-54215.0,-77822.5
312456,-226.92,-272.67,1087.02,10780.0,14140.0,27895.0
312485,-316.47,-262.06,1058.47,-2835.0,60322.5,97510.0
312513,-357.7,-268.4,1026.02,-32532.5,23922.5,138670.0
312542,-336.23,-289.14,1021.63,-46410.0,682.5,144567.5
312570,-231.92,-313.66,1056.76,-29522.5,25410.0,102130.0
312599,-68.08,-330.38,1112.88,1977.5,20387.5,22172.5
312628,87.35,-341.11,1156.07,43662.5,-577.5,-70822.5
312657,177.88,-356.97,1156.32,62510.0,-31307.5,-139072.5
312685,186.29,-376.25,1124.6,29890.0,-24412.5,-167335.0
312713,95.16,-383.32,1091.05,-5617.5,-22330.0,-152337.5
312742,-81.62,-372.59,1076.53,-13265.0,-51030.0,-50400.0
312770,-248.88,-357.95,1079.7,-10535.0,11532.5,59972.5
312799,-344.77,-349.29,1074.45,3465.0,41737.5,109970.0
312827,-384.67,-350.14,1048.59,2345.0,22015.0,136185.0
312856,-369.9,-362.58,1024.56,-22592.5,19827.5,146387.5
312884,-291.34,-377.47,1033.1,-39707.5,17237.5,114800.0
312913,-164.7,-386.25,1075.55,-12390.0,2485.0,61967.5
312941,-14.76,-389.18,1122.03,21945.0,18007.5,-10150.0
312970,105.53,-390.77,1142.41,39077.5,-12617.5,-87727.5
312998,151.77,-395.65,1139.11,25182.5,-31535.0,-128380.0
313027,128.34,-399.18,1131.92,12162.5,-1715.0,-142205.0
313055,32.33,-392.35,1125.33,18655.0,-36855.0,-129657.5
313084,-125.17,-374.05,1110.44,33705.0,-59080.0,-65940.0
313112,-275.96,-350.63,1079.82,18095.0,-437.5,37187.5
313140,-362.71,-336.6,1035.05,-7910.0,48580.0,107870.0
313169,-387.96,-339.04,997.23,-45675.0,19845.0,135257.5
313197,-359.53,-353.31,994.79,-50785.0,-927.5,132755.0
313226,-268.77,-370.15,1028.46,-35752.5,13685.0,101447.5
313254,-124.93,-378.93,1081.41,-3937.5,19617.5,44065.0
313283,28.3,-378.69,1125.33,32165.0,22137.5,-36032.5
313311,143.84,-381.98,1136.19,49192.5,-11970.0,-103442.5
313340,188.37,-394.18,1118.98,31080.0,-51327.5,-152495.0
313368,132.49,-404.19,1099.59,-3325.0,-54757.5,-162312.5
313397,-18.91,-399.43,1101.05,-14805.0,-68950.0,-100222.5
313425,-190.32,-379.42,1119.11,10832.5,-30152.5,3657.5
313454,-307.32,-359.41,1113.13,35717.5,50312.5,80535.0
313483,-362.22,-352.82,1069.21,7595.0,68460.0,129762.5
313511,-351.36,-360.63,1032.24,-41702.5,32095.0,148470.0
313539,-266.08,-372.71,1042.73,-54005.0,15365.0,108657.5
313567,-128.1,-377.96,1089.34,-19302.5,22417.5,46375.0
313596,27.82,-377.22,1136.92,13667.5,20422.5,-27702.5
313624,148.96,-380.52,1157.17,35437.5,-9852.5,-107100.0
313653,196.18,-392.35,1145.46,30957.5,-31692.5,-152512.5
313681,167.99,-404.55,1130.21,5057.5,-16817.5,-160860.0
313710,61.24,-408.09,1120.45,525.0,-31395.0,-135467.5
313738,-102.85,-398.21,1117.64,1487.5,-75950.0,-47985.0
313767,-253.03,-380.4,1121.06,17500.0,5040.0,50277.5
313796,-342.33,-372.1,1097.63,19845.0,82250.0,119280.0
313825,-369.05,-380.76,1055.79,-25690.0,57505.0,152145.0
313853,-328.67,-398.33,1044.69,-57435.0,17552.5,142450.0
313882,-224.85,-412.97,1080.43,-43137.5,12950.0,100677.5
313910,-74.42,-418.46,1139.85,-5512.5,34072.5,35262.5
313938,71.98,-417.48,1188.52,34912.5,30205.0,-57365.0
313967,157.5,-422.12,1198.77,66237.5,-17220.0,-120907.5
313995,173.97,-434.56,1174.01,51922.5,-26967.5,-154752.5
314024,106.99,-442.49,1139.11,18375.0,-20877.5,-159635.0
314052,-34.16,-435.66,1116.18,5635.0,-61512.5,-79835.0
314081,-178.24,-416.02,1103.37,14752.5,-22680.0,-2275.0
314109,-281.45,-392.72,1078.6,6737.5,40670.0,53270.0
314138,-341.6,-375.39,1039.81,-13055.0,48002.5,91560.0
314166,-368.32,-370.64,1007.48,-41230.0,25217.5,106155.0
314195,-359.41,-376.13,1002.23,-53200.0,18987.5,117197.5
314223,-296.46,-382.59,1029.56,-49805.0,35542.5,100537.5
314252,-185.81,-381.25,1082.02,-28805.0,15260.0,51520.0
314280,-54.78,-373.69,1141.92,3290.0,1960.0,-10622.5
314309,51.36,-370.39,1179.37,39112.5,-21332.5,-82372.5
314338,94.31,-376.13,1184.38,49612.5,-48370.0,-121205.0
314366,71.49,-384.3,1168.39,37152.5,-31657.5,-135117.5
314395,-26.11,-385.76,1147.29,18007.5,-65065.0,-111020.0
314423,-162.99,-373.44,1143.63,7875.0,-70577.5,-35262.5
314452,-274.26,-351.12,1139.72,29102.5,12075.0,25042.5
314480,-344.41,-330.99,1101.78,29067.5,54967.5,73500.0
314509,-377.47,-321.1,1047.98,-17797.5,34667.5,104755.0
314537,-380.15,-322.08,1020.41,-55737.5,10815.0,111527.5
314566,-351.6,-329.28,1027.0,-49210.0,26635.0,112297.5
314594,-273.28,-335.5,1055.06,-38150.0,47740.0,90720.0
314623,-150.3,-335.62,1100.93,-27912.5,19617.5,33582.5
314651,-15.13,-333.79,1152.53,2835.0,-9345.0,-32007.5
314680,92.84,-341.36,1180.72,38150.0,-33162.5,-100135.0
314708,145.42,-359.78,1176.2,40355.0,-44012.5,-144112.5
314736,137.62,-381.37,1155.46,22680.0,-29400.0,-165532.5
314764,53.68,-395.28,1136.06,-2730.0,-59990.0,-150447.5
314792,-100.41,-395.28,1132.89,-13720.0,-83685.0,-74847.5
314820,-260.23,-386.01,1146.56,3395.0,-20440.0,32585.0
314848,-364.66,-381.13,1143.14,29662.5,65432.5,112595.0
314877,-402.48,-390.28,1105.44,5897.5,69492.5,153807.5
314905,-383.93,-410.29,1072.75,-38115.0,39742.5,155592.5
314934,-299.39,-435.54,1080.19,-52202.5,43155.0,140997.5
314962,-145.18,-456.16,1132.16,-39410.0,49787.5,74585.0
314991,23.79,-466.28,1198.41,7542.5,28787.5,-30905.0
315020,132.13,-478.97,1232.44,57942.5,-12390.0,-116550.0
315049,151.16,-496.54,1223.05,64347.5,-20037.5,-150832.5
315077,82.11,-503.86,1191.21,42962.5,-17202.5,-149835.0
315106,-59.54,-492.27,1160.46,19670.0,-53865.0,-92015.0
315135,-219.36,-465.43,1137.77,9362.5,-27055.0,-1732.5
315163,-338.43,-439.2,1103.73,13055.0,42752.5,81812.5
315192,-400.28,-428.71,1048.96,-21507.5,67217.5,135065.0
315220,-409.43,-437.25,1007.72,-69842.5,18672.5,154280.0
315249,-362.34,-457.5,1016.87,-73885.0,-2135.0,133332.5
315277,-262.42,-477.75,1064.57,-35840.0,5740.0,87255.0
315306,-124.44,-490.93,1122.03,-3307.5,4672.5,22890.0
315334,11.96,-497.64,1166.81,26337.5,-7735.0,-59587.5
315363,97.6,-507.64,1178.76,48895.0,-39532.5,-123165.0
315391,119.32,-522.16,1164.0,36960.0,-36085.0,-152372.5
315420,76.37,-529.97,1143.63,10517.5,-36820.0,-159827.5
315448,-34.4,-522.4,1131.43,-3762.5,-67270.0,-123987.5
315477,-184.95,-498.74,1131.43,1977.5,-47180.0,-43505.0
315505,-317.2,-469.94,1129.23,19757.5,29102.5,48265.0
315534,-394.3,-451.52,1100.44,22102.5,78960.0,109480.0
315563,-417.24,-447.37,1060.91,-16257.5,50085.0,134925.0
315591,-399.18,-454.33,1045.54,-30292.5,23607.5,131530.0
315619,-330.99,-465.8,1063.6,-34527.5,24080.0,117932.5
315647,-205.57,-472.87,1109.96,-19460.0,-1767.5,60357.5
315676,-53.68,-472.63,1162.9,17675.0,-19477.5,-12845.0
315704,73.44,-470.68,1191.57,39077.5,-23555.0,-82425.0
315733,143.72,-475.31,1191.21,28577.5,-43837.5,-129937.5
315761,153.48,-486.17,1180.47,13352.5,-34002.5,-158532.5
315790,87.11,-490.68,1163.51,5477.5,-47897.5,-152617.5
315818,-51.12,-478.0,1151.68,-6247.5,-62387.5,-88585.0
315847,-203.13,-451.64,1155.71,5565.0,-11200.0,4987.5
315876,-309.64,-426.76,1145.58,27842.5,68495.0,78382.5
315905,-358.19,-414.07,1104.47,2817.5,78610.0,119997.5
315934,-361.85,-413.82,1069.7,-40635.0,37240.0,133385.0
315963,-323.06,-420.9,1073.97,-49472.5,30135.0,127662.5
315991,-230.7,-427.24,1110.81,-26372.5,36942.5,101272.5
316019,-94.06,-426.88,1158.76,3920.0,36120.0,27107.5
316048,27.69,-422.12,1193.77,32445.0,10867.5,-54092.5
316076,88.69,-420.53,1206.21,41632.5,-29610.0,-99225.0
316105,99.8,-421.88,1205.73,44852.5,-31185.0,-124250.0
316133,62.22,-418.83,1197.8,36977.5,-32007.5,-127715.0
316162,-20.74,-404.8,1190.96,37432.5,-23520.0,-96232.5
316190,-132.74,-378.81,1173.52,57925.0,8155.0,-56507.5
316219,-248.39,-345.14,1123.62,47617.5,2957.5,10342.5
316247,-330.13,-313.05,1055.3,-3062.5,24447.5,65082.5
316276,-377.96,-294.02,997.11,-53025.0,31990.0,102200.0
316304,-397.6,-294.39,967.7,-85015.0,16467.5,127907.5
316333,-384.91,-310.0,976.98,-80290.0,6842.5,128905.0
316362,-320.13,-330.5,1015.89,-53357.5,19477.5,122045.0
316391,-188.86,-345.5,1069.21,-26320.0,5232.5,62142.5
316420,-37.09,-351.12,1121.79,2187.5,-10972.5,-18882.5
316448,79.42,-357.46,1149.73,27282.5,-25847.5,-90160.0
316477,137.37,-372.34,1149.24,30047.5,-45500.0,-135030.0
316505,134.69,-389.91,1139.6,14000.0,-34020.0,-156117.5
316534,62.22,-398.57,1129.96,5582.5,-50487.5,-150167.5
316562,-75.64,-389.18,1124.35,2047.5,-62352.5,-89162.5
316591,-218.75,-364.54,1128.74,7490.0,-4742.5,4900.0
316620,-312.69,-339.28,1119.72,26372.5,62755.0,70245.0
316649,-359.29,-324.28,1083.85,6737.5,59762.5,109427.5
316677,-370.88,-321.84,1054.32,-25497.5,36207.5,131547.5
316706,-338.18,-328.91,1059.69,-33652.5,39480.0,134365.0
316734,-250.47,-338.92,1095.19,-14157.5,48720.0,99382.5
316763,-121.51,-345.02,1140.21,7297.5,41807.5,32270.0
316792,4.88,-346.36,1179.86,20230.0,10902.5,-40967.5
316820,87.35,-349.77,1197.67,36592.5,-25760.0,-98507.5
316849,110.29,-356.97,1190.23,34055.0,-54040.0,-132037.5
316877,79.06,-355.75,1177.67,21052.5,-43855.0,-128957.5
316906,4.76,-341.84,1159.24,26880.0,-18305.0,-109445.0
316934,-110.17,-320.49,1129.96,12512.5,-30590.0,-70140.0
316963,-238.63,-295.97,1107.27,-6702.5,-23730.0,-2292.5
316991,-336.48,-274.99,1085.68,4112.5,17080.0,58660.0
317020,-394.3,-264.98,1048.47,-10272.5,35052.5,96775.0
317048,-422.12,-268.4,1014.92,-39375.0,15102.5,119472.5
317077,-416.75,-284.14,1005.04,-39795.0,21542.5,135170.0
317105,-339.53,-307.44,1022.12,-45885.0,42840.0,130060.0
317134,-185.32,-324.64,1075.19,-42017.5,25095.0,55702.5
317162,-21.47,-330.86,1140.7,5250.0,4322.5,-32760.0
317191,85.16,-335.87,1167.05,46655.0,-18200.0,-104492.5
317219,106.87,-344.77,1147.41,29172.5,-35105.0,-135380.0
317248,44.29,-350.75,1125.21,-9537.5,-37030.0,-131407.5
317277,-89.79,-345.87,1126.79,-5180.0,-70997.5,-81147.5
317305,-239.12,-330.5,1135.21,21350.0,-30380.0,5582.5
317334,-336.84,-315.0,1115.08,34300.0,45552.5,80762.5
317362,-368.32,-308.78,1067.38,-1837.5,47845.0,116602.5
317391,-350.02,-311.83,1036.88,-42752.5,19740.0,115780.0
317419,-292.56,-318.66,1045.17,-42630.0,23030.0,98490.0
317448,-199.1,-322.69,1073.6,-15767.5,22382.5,59587.5
317476,-82.47,-320.01,1103.25,1365.0,17447.5,9817.5
317505,29.04,-314.76,1122.4,8260.0,-1522.5,-50242.5
317534,92.35,-311.22,1156.32,2187.5,-23310.0,-86082.5
317563,120.17,-296.46,1193.53,-19215.0,-1295.0,-33582.5
317591,72.47,-284.75,1162.9,-31307.5,-70490.0,-26215.0
317620,-51.36,-277.55,1130.94,-19600.0,-92505.0,-10307.5
317648,-141.52,-258.64,1131.43,29417.5,38535.0,25200.0
317677,-187.51,-239.0,1089.7,37310.0,33565.0,43680.0
317706,-216.18,-223.26,1030.66,-17780.0,-4480.0,67462.5
317734,-226.19,-214.6,999.55,-43225.0,15522.5,89512.5
317763,-208.74,-213.74,993.08,-44660.0,32795.0,94920.0
317791,-134.81,-216.18,1011.62,-46497.5,27492.5,80290.0
317820,0.73,-215.82,1066.04,-41405.0,9940.0,17185.0
317849,132.61,-218.75,1132.77,4532.5,-4392.5,-61757.5
317878,201.91,-232.41,1163.64,58852.5,-28035.0,-121590.0
317906,205.81,-248.51,1150.95,54985.0,-20370.0,-146527.5
317935,140.06,-259.13,1121.67,26652.5,-29627.5,-145600.0
317963,-4.88,-260.47,1102.39,10290.0,-64977.5,-94080.0
317992,-181.66,-251.69,1099.1,23100.0,-37625.0,6947.5
318020,-309.27,-246.93,1077.75,32655.0,51642.5,109077.5
318049,-349.16,-258.4,1033.34,-12180.0,71942.5,157045.0
318077,-304.63,-279.14,1016.99,-55002.5,44660.0,147542.5
318106,-193.25,-297.19,1055.79,-43277.5,30712.5,95620.0
318134,-36.84,-305.85,1124.84,-892.5,39882.5,29260.0
318162,115.05,-306.22,1178.52,38500.0,16835.0,-64050.0
318191,200.32,-309.76,1188.4,58240.0,-43435.0,-128555.0
318219,202.28,-319.64,1159.73,35630.0,-35980.0,-157675.0
318248,107.24,-325.01,1123.25,1400.0,-47250.0,-146037.5
318276,-64.17,-317.32,1109.47,-1085.0,-72380.0,-63980.0
318305,-228.87,-300.36,1103.12,17902.5,7717.5,38640.0
318333,-327.94,-288.41,1067.5,10500.0,71225.0,111107.5
318362,-364.05,-290.6,1020.29,-39147.5,45045.0,143710.0
318390,-342.82,-306.95,1011.87,-63000.0,25025.0,145197.5
318419,-254.25,-326.84,1056.89,-47390.0,39112.5,111982.5
318447,-105.16,-337.45,1127.52,-5687.5,22487.5,46585.0
318476,52.7,-337.57,1184.99,30747.5,-3745.0,-44852.5
318505,151.4,-337.09,1197.8,55090.0,-36662.5,-115482.5
318534,164.58,-341.6,1168.15,29207.5,-33022.5,-144200.0
318562,84.67,-344.77,1135.33,-11707.5,-42595.0,-140367.5
318591,-70.03,-334.52,1129.72,-6807.5,-81795.0,-72012.5
318620,-219.6,-313.66,1129.6,26985.0,-4672.5,26495.0
318648,-300.85,-294.26,1096.41,27177.5,87570.0,88795.0
318677,-307.32,-282.19,1040.9,-16572.5,76632.5,110127.5
318705,-242.66,-277.92,1024.92,-74007.5,32567.5,85715.0
318734,-133.22,-274.62,1087.75,-62825.0,20475.0,33897.5
318762,-24.89,-268.28,1168.76,12635.0,25182.5,-25025.0
318791,37.45,-264.13,1204.75,50050.0,-29820.0,-80062.5
318819,27.45,-262.06,1200.48,47810.0,-39375.0,-100660.0
318848,-55.75,-255.96,1171.2,34720.0,-49122.5,-84262.5
318876,-181.05,-242.78,1139.11,13317.5,-50942.5,-15172.5
318905,-287.43,-228.26,1105.69,15277.5,11077.5,58415.0
318933,-342.82,-222.77,1059.33,-8837.5,46305.0,112157.5
318962,-323.06,-226.43,1033.34,-52097.5,36837.5,127610.0
318990,-226.92,-228.87,1062.38,-51100.0,21122.5,70507.5
319019,-99.06,-223.5,1124.35,1260.0,13720.0,7787.5
319048,15.98,-215.7,1165.59,50960.0,26582.5,-50820.0
319076,79.79,-211.67,1153.27,69107.5,-3570.0,-99470.0
319105,61.49,-208.62,1103.49,28927.5,-35647.5,-117337.5
319133,-52.09,-201.42,1064.94,-18515.0,-61932.5,-83230.0
319162,-202.89,-188.49,1063.11,-18182.5,-44677.5,5845.0
319190,-301.34,-174.22,1058.96,11270.0,41055.0,75022.5
319219,-304.51,-165.43,1032.61,-17325.0,72607.5,105245.0
319247,-225.94,-159.45,1035.05,-57137.5,31430.0,60095.0
319276,-135.91,-152.01,1081.41,-25445.0,280.0,8890.0
319305,-79.79,-143.47,1112.64,25987.5,12827.5,-24587.5
319334,-69.66,-133.96,1103.12,20002.5,-19197.5,-45080.0
319362,-102.48,-122.12,1089.58,1820.0,-23135.0,-34947.5
319391,-149.57,-107.6,1080.19,9292.5,297.5,-13580.0
319420,-186.78,-91.38,1062.13,8540.0,3430.0,9362.5
319449,-204.47,-75.4,1039.93,-3535.0,11042.5,22260.0
319478,-203.5,-61.37,1025.04,-14700.0,11165.0,24587.5
319506,-193.61,-50.02,1022.24,-16800.0,5775.0,18882.5
319535,-186.17,-40.99,1026.87,-12092.5,805.0,15942.5
319563,-181.05,-33.79,1033.83,-10167.5,472.5,11952.5
319592,-181.05,-28.06,1043.1,-6125.0,-10045.0,6055.0
319620,-187.88,-21.11,1054.2,1015.0,-18970.0,6317.5
319649,-203.62,-7.81,1054.08,18865.0,-26617.5,1680.0
319678,-250.1,6.83,1021.38,23082.5,-49980.0,17377.5
319707,-308.54,8.3,977.46,-17622.5,-23380.0,76282.5
319736,-309.88,-7.56,966.12,-40582.5,36330.0,113102.5
319765,-214.23,-32.21,996.98,-36995.0,12215.0,77682.5
319794,-60.39,-56.36,1054.93,-2502.5,-27317.5,-7525.0
319823,81.74,-81.01,1099.59,39672.5,-17675.0,-85610.0
319852,173.73,-114.92,1100.44,51397.5,-31255.0,-151340.0
319880,188.61,-156.16,1074.82,23275.0,-25515.0,-184835.0
319908,118.95,-189.83,1053.59,-2415.0,1732.5,-169820.0
319936,-30.74,-205.33,1042.12,507.5,-37135.0,-118230.0
319965,-220.82,-203.98,1043.83,682.5,-41317.5,-10885.0
319993,-371.12,-203.62,1042.37,21525.0,31605.0,93887.5
320022,-442.62,-220.94,1009.79,-1925.0,62160.0,163135.0
320050,-430.17,-256.44,983.32,-51782.5,30187.5,183960.0
320079,-317.44,-297.56,1007.96,-66972.5,2520.0,149625.0
320107,-123.83,-327.94,1079.7,-34247.5,-11182.5,55177.5
320136,74.18,-346.48,1145.46,46252.5,9327.5,-52447.5
320165,208.38,-366.24,1155.83,81095.0,-15907.5,-142432.5
320194,256.08,-391.01,1120.45,56770.0,-25550.0,-184765.0
320222,213.5,-413.34,1070.67,1120.0,945.0,-191957.5
320251,55.39,-420.17,1042.25,-29417.5,-64487.5,-139195.0
320279,-159.58,-412.73,1057.25,-9800.0,-83877.5,-2957.5
320307,-322.32,-403.58,1078.24,22732.5,38220.0,89197.5
320336,-407.11,-404.55,1055.79,24097.5,74865.0,152495.0
320364,-423.58,-423.46,1014.67,-24885.0,34230.0,182787.5
320393,-362.1,-454.08,1014.06,-56542.5,25550.0,175857.5
320421,-220.45,-480.19,1064.45,-34930.0,30747.5,115080.0
320450,-24.28,-491.42,1133.38,16380.0,38605.0,18742.5
320478,162.02,-496.05,1178.03,62895.0,9940.0,-103162.5
320507,262.79,-507.64,1171.93,65240.0,-53847.5,-182437.5
320535,258.64,-526.8,1132.16,14490.0,-41755.0,-208355.0
320564,118.34,-542.41,1099.71,-38570.0,-42805.0,-172130.0
320592,-101.5,-541.07,1115.57,-28245.0,-105560.0,-35665.0
320621,-277.92,-527.77,1144.6,30747.5,-3745.0,56122.5
320650,-375.15,-520.7,1125.94,39147.5,71102.5,122885.0
320679,-393.45,-527.04,1080.07,-9765.0,62492.5,148732.5
320708,-335.26,-539.48,1062.01,-55090.0,15015.0,146457.5
320736,-203.5,-542.41,1100.44,-53375.0,-2572.5,101762.5
320765,-27.57,-529.97,1165.34,5670.0,41055.0,21105.0
320793,128.83,-512.89,1199.75,67270.0,32217.5,-77105.0
320822,216.43,-504.96,1185.96,63822.5,-35805.0,-132807.5
320850,227.29,-507.52,1148.87,13702.5,-29785.0,-159075.0
320879,148.84,-512.77,1115.08,-23397.5,-17080.0,-152180.0
320907,-20.01,-511.55,1096.78,-24727.5,-75337.5,-78470.0
320936,-207.89,-501.91,1100.68,-10657.5,-47250.0,31202.5
320964,-329.4,-493.61,1100.93,13142.5,53007.5,104020.0
320993,-370.88,-495.32,1072.62,5162.5,63805.0,136325.0
321021,-340.62,-502.15,1050.05,-36907.5,25672.5,142940.0
321050,-247.17,-503.62,1074.09,-55702.5,18707.5,112647.5
321078,-108.09,-492.51,1138.14,-22470.0,28052.5,61530.0
321106,41.85,-473.73,1198.16,31290.0,39112.5,-27457.5
321135,143.23,-463.11,1217.93,65852.5,-12967.5,-95130.0
321163,167.75,-464.7,1201.82,55335.0,-30940.0,-127225.0
321192,117.24,-465.31,1175.1,25060.0,-8960.0,-132790.0
321220,-7.08,-457.13,1154.61,20335.0,-52850.0,-103057.5
321249,-178.36,-440.42,1135.58,37240.0,-53007.5,-23432.5
321277,-317.08,-420.78,1100.93,32760.0,32480.0,68985.0
321306,-382.23,-407.6,1047.25,-1680.0,56070.0,117985.0
321334,-382.47,-404.31,1005.89,-44765.0,21052.5,141435.0
321363,-311.34,-403.09,1012.11,-64785.0,23940.0,117110.0
321391,-187.88,-393.45,1062.74,-43225.0,31325.0,62440.0
321420,-47.34,-376.98,1123.13,-1820.0,55650.0,-7262.5
321449,55.88,-362.58,1150.46,37940.0,4777.5,-84332.5
321478,66.61,-356.48,1138.14,28350.0,-51940.0,-121275.0
321506,-23.55,-352.21,1116.54,4112.5,-49840.0,-110792.5
321534,-178.85,-341.23,1099.71,7350.0,-56612.5,-33390.0
321563,-313.91,-327.94,1080.8,7735.0,6317.5,65607.5
321591,-381.13,-320.98,1048.35,-5670.0,55107.5,112892.5
321620,-397.48,-324.76,1009.06,-34107.5,30712.5,137182.5
321648,-351.48,-338.06,995.52,-65835.0,10150.0,134645.0
321677,-250.34,-350.87,1030.17,-67410.0,2800.0,76020.0
321705,-124.56,-358.44,1088.24,-23415.0,4357.5,21017.5
321734,5.12,-365.27,1132.89,12320.0,3867.5,-49980.0
321763,96.62,-378.93,1156.56,32900.0,-28525.0,-114677.5
321792,127.12,-401.87,1165.71,40075.0,-28945.0,-152337.5
321820,96.14,-423.46,1159.49,44135.0,-20720.0,-165602.5
321849,-3.66,-434.2,1134.36,35910.0,-43610.0,-144445.0
321877,-166.65,-425.54,1109.35,16502.5,-72415.0,-69055.0
321906,-315.0,-402.6,1100.44,15172.5,-25515.0,47040.0
321934,-388.94,-384.67,1082.75,15050.0,75512.5,103775.0
321962,-406.5,-378.2,1045.78,-11165.0,78995.0,129832.5
321990,-369.54,-380.4,1029.19,-47722.5,42560.0,128922.5
322018,-274.87,-385.28,1060.79,-56000.0,32130.0,96022.5
322047,-146.77,-384.06,1126.79,-20457.5,29172.5,31360.0
322075,-29.65,-377.35,1183.77,30117.5,16642.5,-38727.5
322104,36.97,-373.08,1199.14,62352.5,-6772.5,-89757.5
322132,38.67,-368.07,1180.72,57452.5,-21350.0,-111702.5
322161,-30.01,-356.0,1149.0,42735.0,-38622.5,-105630.0
322189,-158.23,-336.23,1112.64,33075.0,-61040.0,-50820.0
322218,-285.72,-312.32,1077.5,14892.5,-24622.5,40967.5
322246,-355.02,-294.14,1041.88,-5337.5,50032.5,101500.0
322275,-349.16,-285.72,1010.16,-36627.5,64715.0,117530.0
322303,-271.82,-281.82,1011.26,-64802.5,20072.5,83545.0
322332,-149.57,-275.48,1066.52,-46515.0,-15242.5,24727.5
322360,-36.11,-267.91,1132.77,14980.0,12512.5,-47390.0
322388,20.25,-263.76,1151.31,59167.5,4917.5,-89722.5
322417,11.96,-260.23,1129.96,38150.0,-13982.5,-106487.5
322445,-59.05,-253.27,1101.66,11270.0,-46077.5,-96862.5
322474,-169.58,-241.56,1079.7,2380.0,-54337.5,-33180.0
322502,-268.4,-227.53,1059.2,612.5,-35.0,35157.5
322531,-328.67,-218.14,1028.46,-5145.0,34685.0,83405.0
322559,-340.99,-218.01,998.69,-30170.0,28910.0,109917.5
322588,-286.58,-220.82,997.84,-49437.5,26897.5,88182.5
322616,-178.24,-218.38,1033.83,-39410.0,-9712.5,32900.0
322645,-49.78,-211.3,1086.17,-6387.5,-11865.0,-22067.5
322673,49.78,-207.4,1111.79,33162.5,-6177.5,-89390.0
322702,71.74,-210.57,1100.44,26092.5,-36680.0,-118825.0
322730,10.98,-216.18,1091.17,-8802.5,-55562.5,-112000.0
322759,-104.19,-215.7,1106.54,-2887.5,-72695.0,-52622.5
322787,-215.7,-208.38,1121.3,31622.5,-7577.5,22680.0
322815,-287.55,-203.01,1102.64,37660.0,61267.5,80587.5
322844,-310.61,-205.2,1060.91,4795.0,60567.5,122027.5
322872,-261.08,-211.3,1037.73,-33915.0,33180.0,112630.0
322901,-151.65,-213.62,1059.94,-42262.5,6807.5,50960.0
322929,-29.04,-208.62,1108.74,-5495.0,18550.0,-5950.0
322958,64.42,-201.42,1136.8,34370.0,10867.5,-63752.5
322986,87.84,-196.18,1131.92,29890.0,-17867.5,-93117.5
323015,32.94,-187.51,1126.79,19652.5,-14875.0,-85872.5
323043,-74.79,-173.24,1122.89,50067.5,-18060.0,-37590.0
323072,-181.54,-158.11,1096.29,47145.0,26267.5,32042.5
323100,-249.0,-145.67,1046.39,19110.0,51660.0,79940.0
323129,-271.21,-141.15,992.59,-26477.5,31850.0,110110.0
323157,-244.24,-145.06,964.9,-70630.0,9327.5,104457.5
323185,-178.85,-152.5,977.22,-75337.5,-13492.5,67602.5
323214,-87.11,-159.7,1015.53,-50890.0,-8662.5,30100.0
323242,18.06,-166.9,1063.72,-19985.0,2800.0,-31710.0
323271,98.82,-177.63,1100.56,19197.5,-6405.0,-90702.5
323299,134.44,-192.76,1112.76,27492.5,4147.5,-134487.5
323328,119.32,-206.18,1112.64,29592.5,2975.0,-153090.0
323356,42.21,-213.74,1093.12,41737.5,-27020.0,-147822.5
323385,-101.5,-211.67,1060.18,14647.5,-61652.5,-74882.5
323413,-249.86,-206.42,1047.61,437.5,-15277.5,53095.0
323442,-336.35,-211.3,1036.15,11585.0,66325.0,124827.5
323470,-362.83,-229.73,1007.48,-13282.5,56122.5,163415.0
323499,-312.32,-254.0,1000.64,-47635.0,32252.5,152670.0
323527,-199.59,-271.33,1037.24,-43330.0,9992.5,79922.5
323556,-67.1,-279.75,1092.14,-875.0,11742.5,28770.0
323585,65.51,-285.97,1136.8,33670.0,30397.5,-60917.5
323613,144.69,-299.51,1154.12,66832.5,-9642.5,-131757.5
323642,147.01,-316.47,1139.36,59867.5,-10202.5,-151007.5
323670,79.67,-322.69,1105.93,35857.5,-2555.0,-153440.0
323699,-59.54,-315.0,1071.4,25130.0,-49122.5,-105822.5
323727,-224.11,-297.92,1043.1,18042.5,-37327.5,-2275.0
323756,-341.6,-281.58,1010.04,4322.5,39497.5,86782.5
323784,-394.91,-275.96,966.24,-23450.0,63017.5,130410.0
323813,-384.06,-282.92,931.47,-65327.5,33232.5,136640.0
323841,-313.78,-298.05,934.76,-102742.5,-7035.0,81480.0
323870,-205.69,-311.95,1002.84,-95812.5,-46217.5,45115.0
323898,-77.96,-319.15,1093.49,-10150.0,24990.0,-14420.0
323927,26.6,-323.3,1138.99,58677.5,21682.5,-87132.5
323956,75.52,-330.13,1137.41,76860.0,-17255.0,-128852.5
323985,63.32,-337.21,1106.3,48790.0,-20492.5,-141610.0
324013,-17.08,-336.72,1075.06,3517.5,-51205.0,-120015.0
324041,-149.57,-326.35,1068.6,-6597.5,-78260.0,-47775.0
324069,-275.35,-310.25,1074.09,22277.5,-18252.5,34580.0
324097,-350.38,-296.58,1057.13,34825.0,65327.5,93380.0
324126,-368.44,-289.87,1010.04,2782.5,80780.0,110635.0
324154,-343.31,-291.58,960.87,-49157.5,33407.5,93712.5
324183,-270.84,-300.12,961.48,-96372.5,2887.5,73937.5
324211,-149.82,-304.63,1029.68,-78487.5,39182.5,29400.0
324240,-28.06,-303.17,1106.54,4690.0,36120.0,-47145.0
324268,39.04,-308.9,1143.51,48457.5,-28752.5,-99715.0
324297,43.92,-322.57,1150.46,46270.0,-36872.5,-123777.5
324325,-3.17,-333.18,1142.41,45027.5,-29260.0,-125177.5
324354,-99.06,-335.5,1122.03,35367.5,-44940.0,-86432.5
324382,-221.55,-327.45,1097.88,20020.0,-29330.0,-16957.5
324411,-325.86,-316.71,1072.14,13912.5,19180.0,64365.0
324440,-387.96,-314.52,1037.98,-3115.0,43610.0,116865.0
324468,-408.82,-323.79,1009.31,-33600.0,17412.5,140945.0
324496,-381.86,-340.14,1009.43,-38797.5,385.0,138652.5
324524,-283.53,-354.78,1041.88,-29522.5,21385.0,112945.0
324553,-123.71,-357.22,1098.37,-11882.5,34790.0,34142.5
324581,35.62,-353.43,1149.0,38290.0,28805.0,-54915.0
324610,142.37,-363.07,1156.56,81795.0,-945.0,-132912.5
324638,165.43,-388.81,1119.47,65222.5,-29015.0,-170800.0
324667,84.55,-414.8,1076.77,6142.5,-41335.0,-160037.5
324695,-79.06,-423.58,1069.45,-26057.5,-78557.5,-81882.5
324724,-241.8,-410.65,1088.48,560.0,-26250.0,17395.0
324753,-342.21,-389.91,1086.78,31255.0,56315.0,80237.5
324782,-384.18,-375.03,1052.01,13965.0,70402.5,118965.0
324810,-368.81,-370.51,1020.9,-32287.5,46165.0,130077.5
324839,-283.53,-369.17,1036.39,-64085.0,44712.5,86887.5
324868,-159.58,-360.75,1104.34,-40390.0,25357.5,13632.5
324896,-50.87,-349.16,1170.47,42997.5,5197.5,-50855.0
324925,9.27,-343.19,1179.62,86835.0,-23642.5,-102952.5
324953,3.42,-340.87,1139.11,51590.0,-55965.0,-124215.0
324982,-82.72,-337.33,1095.68,-12250.0,-80902.5,-105735.0
325010,-216.31,-326.47,1086.29,-33320.0,-77787.5,-16870.0
325039,-324.03,-311.1,1089.22,3745.0,7665.0,62090.0
325068,-381.01,-301.71,1065.67,15575.0,65012.5,108167.5
325097,-377.35,-301.34,1033.71,-24675.0,65555.0,133490.0
325125,-302.8,-301.95,1041.15,-64382.5,49280.0,87430.0
325154,-193.49,-296.95,1099.71,-38640.0,16817.5,23362.5
325182,-90.65,-290.6,1167.78,25550.0,6860.0,-40040.0
325211,-27.33,-288.9,1194.14,76947.5,-24657.5,-96337.5
325239,-26.6,-290.12,1173.15,65187.5,-47407.5,-119507.5
325267,-93.57,-285.72,1133.38,29190.0,-47477.5,-108150.0
325295,-208.62,-272.18,1101.42,4847.5,-55265.0,-36120.0
325323,-312.81,-255.1,1079.46,4655.0,-2222.5,41300.0
325352,-372.22,-240.83,1047.98,122.5,34562.5,85172.5
325380,-394.55,-234.24,1011.38,-24657.5,22855.0,106890.0
325409,-388.57,-236.19,990.64,-43942.5,6807.5,109410.0
325437,-355.39,-242.05,995.28,-47197.5,7332.5,102515.0
325466,-282.8,-248.03,1024.92,-34037.5,10447.5,78067.5
325494,-164.82,-251.08,1072.87,-11795.0,10972.5,23467.5
325523,-30.74,-253.03,1124.96,10675.0,-6545.0,-47792.5
325551,66.73,-261.81,1158.02,39585.0,-33092.5,-115797.5
325580,94.79,-278.28,1161.44,49455.0,-43820.0,-151340.0
325608,63.2,-292.92,1145.21,33442.5,-30100.0,-155050.0
325637,-38.31,-297.07,1118.37,14577.5,-53060.0,-128450.0
325665,-192.64,-288.9,1099.59,-5390.0,-50400.0,-34072.5
325693,-326.96,-275.72,1091.41,-1330.0,21210.0,58030.0
325722,-406.26,-271.82,1067.87,-1207.5,65257.5,123917.5
325750,-430.05,-284.14,1040.05,-37747.5,57645.0,151917.5
325779,-406.5,-308.42,1036.51,-44432.5,39707.5,147945.0
325807,-309.39,-334.28,1072.01,-45937.5,47145.0,126822.5
325836,-142.5,-349.04,1144.12,-20527.5,39375.0,35297.5
325864,15.13,-354.78,1212.8,42052.5,-2047.5,-62720.0
325893,103.7,-366.37,1231.59,87500.0,-31255.0,-132772.5
325921,116.02,-382.96,1198.65,66727.5,-48107.5,-160107.5
325950,42.82,-394.18,1157.66,9135.0,-72712.5,-152460.0
325978,-108.58,-391.25,1145.58,-11865.0,-96285.0,-79975.0
326007,-268.16,-373.69,1153.39,15137.5,-32567.5,18812.5
326035,-374.05,-356.48,1139.48,30835.0,64120.0,94867.5
326064,-417.24,-353.07,1091.9,-2450.0,77332.5,137865.0
326093,-396.38,-365.51,1047.98,-60935.0,26547.5,136570.0
326121,-311.83,-382.84,1060.18,-101657.5,-13527.5,100607.5
326149,-174.83,-392.35,1128.26,-46952.5,22277.5,58292.5
326177,-11.96,-390.64,1186.82,29312.5,52797.5,-28280.0
326206,114.31,-386.37,1201.7,50015.0,-18637.5,-112560.0
326234,164.58,-394.06,1184.13,43085.0,-59622.5,-158567.5
326263,128.95,-411.14,1153.75,11427.5,-45272.5,-169855.0
326291,-5.37,-422.36,1136.8,-14892.5,-86082.5,-118965.0
326320,-181.54,-420.78,1151.68,-3360.0,-65152.5,-1697.5
326348,-309.27,-412.97,1165.59,31342.5,57400.0,88252.5
326377,-366.0,-412.36,1141.68,28612.5,101412.5,139755.0
326405,-361.97,-422.12,1107.39,-19092.5,74602.5,152180.0
326434,-299.63,-434.32,1108.13,-49980.0,48195.0,133140.0
326462,-179.22,-439.2,1157.54,-34772.5,32585.0,84385.0
326491,-30.99,-432.61,1225.73,15855.0,34072.5,-1347.5
326520,84.91,-423.46,1262.7,67112.5,-5197.5,-78277.5
326548,132.98,-420.17,1249.4,68705.0,-45570.0,-121695.0
326576,109.56,-419.92,1210.61,28315.0,-43907.5,-135835.0
326604,10.13,-414.92,1175.71,-1382.5,-68915.0,-107030.0
326633,-129.32,-398.57,1160.95,-8522.5,-62492.5,-25637.5
326661,-240.71,-375.52,1152.17,13020.0,20125.0,45622.5
326690,-299.75,-354.41,1125.57,18515.0,66325.0,84385.0
326718,-317.81,-338.79,1088.97,-7787.5,54232.5,101202.5
326747,-305.73,-329.16,1067.62,-41527.5,31150.0,100222.5
326775,-269.13,-321.84,1078.85,-49770.0,20037.5,84367.5
326804,-208.86,-311.95,1113.62,-25725.0,13825.0,60812.5
326832,-135.91,-296.22,1150.34,1977.5,9310.0,23590.0
326861,-63.2,-276.33,1177.42,23345.0,4200.0,-15487.5
326890,-10.0,-256.81,1186.57,38955.0,-18322.5,-53672.5
326919,3.17,-238.27,1175.59,32970.0,-41002.5,-75687.5
326948,-38.92,-220.33,1150.22,19670.0,-60217.5,-79590.0
326976,-133.96,-202.52,1127.04,2940.0,-70822.5,-32322.5
327005,-235.22,-185.93,1110.44,6632.5,-12915.0,32007.5
327033,-297.19,-175.31,1081.9,1785.0,43190.0,83720.0
327062,-301.95,-173.24,1048.59,-25585.0,44187.5,103565.0
327090,-244.0,-174.95,1041.03,-50767.5,13527.5,83370.0
327119,-132.49,-173.97,1074.21,-39217.5,-10377.5,36522.5
327147,3.9,-171.53,1119.47,4480.0,6457.5,-27492.5
327176,118.95,-175.68,1143.51,24465.0,-6492.5,-96460.0
327204,173.73,-193.13,1148.75,23292.5,-31062.5,-145355.0
327233,160.43,-218.62,1141.43,18182.5,-25392.5,-165532.5
327261,72.35,-238.51,1130.21,6860.0,-44222.5,-144707.5
327290,-75.03,-244.61,1123.13,14367.5,-35035.0,-72310.0
327318,-220.58,-240.34,1112.03,16940.0,20667.5,22837.5
327346,-320.01,-237.66,1082.63,10325.0,58555.0,93397.5
327375,-368.44,-247.66,1040.66,-25567.5,40845.0,139965.0
327403,-357.09,-269.13,1022.12,-56945.0,18777.5,153860.0
327432,-265.84,-289.63,1049.44,-55545.0,20527.5,123235.0
327460,-108.58,-297.19,1112.03,-26670.0,29662.5,51310.0
327489,58.44,-295.61,1172.18,23625.0,34685.0,-36890.0
327517,173.12,-302.8,1188.52,63770.0,4725.0,-114135.0
327546,206.18,-325.37,1160.71,49245.0,-21297.5,-157447.5
327574,153.96,-350.26,1126.3,4742.5,-25147.5,-166390.0
327603,20.25,-361.12,1117.03,-7472.5,-67602.5,-126525.0
327631,-152.74,-356.0,1119.84,37275.0,-58940.0,-32847.5
327660,-289.38,-345.5,1101.66,29732.5,43330.0,65117.5
327689,-361.49,-338.43,1059.08,-7437.5,80780.0,116935.0
327718,-389.06,-342.45,1020.41,-40442.5,24762.5,144130.0
327746,-368.93,-358.31,1013.09,-49665.0,10710.0,148120.0
327774,-286.46,-373.56,1045.05,-48160.0,36522.5,114800.0
327802,-149.45,-376.98,1109.1,-26022.5,26180.0,54005.0
327830,0.12,-370.64,1177.67,19302.5,16607.5,-33040.0
327859,102.97,-368.32,1207.07,71085.0,-25462.5,-105875.0
327887,130.54,-375.15,1184.99,62737.5,-50960.0,-140385.0
327916,80.76,-379.42,1138.75,19057.5,-38762.5,-140857.5
327944,-50.75,-374.78,1099.34,-13510.0,-78925.0,-82757.5
327973,-205.08,-364.54,1091.66,-26635.0,-76475.0,21507.5
328001,-311.34,-352.09,1100.56,-4585.0,10202.5,83755.0
328030,-367.71,-346.48,1089.58,13317.5,55072.5,125895.0
328058,-370.39,-352.82,1062.38,-10167.5,48912.5,151287.5
328087,-303.66,-361.73,1060.06,-48107.5,37607.5,117512.5
328115,-193.61,-364.05,1101.66,-34650.0,22820.0,59027.5
328144,-70.27,-359.29,1154.73,14192.5,24377.5,6790.0
328173,33.18,-351.36,1180.11,42490.0,-1190.0,-57680.0
328201,74.79,-342.21,1173.52,40145.0,-39952.5,-89127.5
328230,54.17,-329.16,1146.8,26425.0,-24360.0,-100695.0
328258,-33.43,-310.86,1117.03,10010.0,-63455.0,-83790.0
328287,-155.92,-290.36,1109.71,-3097.5,-67462.5,-6247.5
328315,-248.39,-272.06,1107.27,13300.0,9327.5,53637.5
328344,-298.53,-261.08,1080.55,9117.5,42175.0,93205.0
328372,-306.83,-260.71,1047.86,-18287.5,30677.5,110915.0
328401,-263.28,-267.3,1038.95,-39900.0,27265.0,97212.5
328429,-166.29,-273.52,1064.57,-33740.0,16117.5,60235.0
328458,-30.26,-276.45,1112.4,-7385.0,8750.0,4830.0
328487,99.06,-279.38,1153.02,19967.5,-122.5,-71225.0
328516,168.12,-288.77,1166.08,36487.5,-25917.5,-123462.5
328544,166.9,-302.56,1158.88,32322.5,-18410.0,-145950.0
328573,90.16,-311.1,1147.41,20860.0,-45552.5,-141452.5
328601,-51.85,-305.73,1142.41,26967.5,-73132.5,-73727.5
328629,-190.44,-288.41,1131.06,39497.5,-4375.0,20510.0
328658,-272.55,-271.82,1093.73,22365.0,72432.5,86905.0
328686,-299.88,-264.13,1044.2,-19180.0,63245.0,113242.5
328715,-283.77,-265.35,1019.43,-52500.0,25410.0,115937.5
328743,-223.63,-270.72,1044.44,-50802.5,15820.0,98157.5
328772,-109.19,-271.45,1107.39,-15960.0,31675.0,56140.0
328800,21.23,-263.52,1167.54,23905.0,20597.5,-27790.0
328829,105.53,-254.25,1188.77,56805.0,-24797.5,-81060.0
328857,128.22,-248.88,1167.05,51292.5,-43452.5,-110967.5
328886,84.06,-242.17,1126.67,13352.5,-39112.5,-114520.0
328914,-21.96,-228.26,1096.66,-3010.0,-49332.5,-70595.0
328943,-143.11,-210.69,1077.87,1487.5,-23607.5,13247.5
328972,-227.41,-197.03,1053.84,-8242.5,40302.5,74305.0
329001,-263.4,-191.78,1024.43,-28805.0,69090.0,101937.5
329029,-256.08,-194.1,1007.23,-51870.0,67165.0,102252.5
329057,-216.92,-198.37,1018.21,-57260.0,62440.0,79362.5
329086,-147.25,-201.79,1053.1,-34492.5,41160.0,52272.5
329114,-50.39,-203.74,1104.83,-21927.5,4060.0,1015.0
329143,34.53,-206.06,1161.68,3185.0,-21350.0,-53497.5
329171,80.64,-212.52,1198.53,37415.0,-33862.5,-92067.5
329200,91.62,-222.77,1203.16,53410.0,-34475.0,-122587.5
329228,63.56,-231.56,1183.28,45955.0,-42630.0,-136902.5
329257,-3.29,-234.97,1157.78,37222.5,-38360.0,-123900.0
329285,-112.0,-234.24,1125.08,35070.0,-42560.0,-75372.5
329314,-238.51,-231.07,1095.8,2415.0,-9432.5,9205.0
329343,-326.23,-228.63,1077.5,-245.0,31272.5,76965.0
329372,-362.1,-232.29,1051.15,-14210.0,29102.5,109112.5
329400,-346.24,-240.95,1038.34,-35490.0,25060.0,122132.5
329429,-259.25,-245.1,1062.25,-37257.5,24867.5,100870.0
329457,-109.19,-236.8,1115.57,-10307.5,15680.0,37345.0
329485,45.38,-222.16,1159.24,35822.5,5705.0,-48632.5
329514,143.96,-218.14,1155.83,46112.5,-41965.0,-112332.5
329542,161.77,-228.87,1126.06,962.5,-39917.5,-139160.0
329571,94.67,-246.2,1111.3,-28140.0,-13317.5,-129395.0
329599,-49.9,-258.88,1118.01,-9292.5,-32025.0,-75915.0
329628,-212.52,-262.3,1122.77,22260.0,5617.5,20125.0
329656,-316.83,-261.45,1096.54,27282.5,58432.5,95427.5
329685,-351.73,-263.52,1046.76,-11077.5,42052.5,128712.5
329713,-328.06,-269.13,1024.43,-50715.0,16870.0,129150.0
329742,-257.66,-271.82,1043.59,-40215.0,9100.0,98647.5
329770,-149.94,-265.96,1080.92,-20860.0,9502.5,58922.5
329799,-22.2,-252.3,1121.67,-7332.5,18795.0,-9117.5
329828,76.49,-239.85,1154.49,17272.5,-26005.0,-68722.5
329857,112.61,-238.27,1162.9,34667.5,-22995.0,-103495.0
329885,86.5,-242.29,1146.31,20125.0,-13405.0,-116830.0
329913,-5.98,-242.41,1132.89,14035.0,-66115.0,-94412.5
329942,-136.4,-236.56,1126.55,35612.5,-42962.5,-20160.0
329970,-235.46,-227.16,1101.42,31587.5,31185.0,52535.0
329999,-275.72,-219.48,1055.18,3675.0,46882.5,88235.0
330027,-260.1,-216.18,1020.53,-32550.0,35035.0,96180.0
330056,-186.17,-211.79,1030.78,-51870.0,41930.0,69335.0
330084,-73.93,-199.35,1084.46,-25077.5,31132.5,15085.0
330113,25.13,-182.76,1134.72,27265.0,21350.0,-42420.0
330141,73.57,-173.48,1145.46,42910.0,8347.5,-79082.5
330170,57.83,-171.53,1130.94,28385.0,-16257.5,-97755.0
330198,-31.35,-170.43,1108.25,28577.5,-61635.0,-82372.5
330227,-159.82,-165.92,1086.78,19477.5,-53235.0,-10080.0
330255,-261.2,-158.97,1059.08,13807.5,23222.5,59342.5
330284,-314.15,-156.53,1013.21,-13457.5,37607.5,101867.5
330312,-327.08,-162.26,976.85,-43382.5,7997.5,118930.0
330340,-297.68,-174.46,968.07,-45867.5,4637.5,120050.0
330369,-192.76,-186.9,992.84,-48440.0,-4585.0,103040.0
330397,-19.76,-196.91,1053.1,-26057.5,3010.0,3920.0
330426,123.83,-211.43,1106.66,29890.0,-17552.5,-97930.0
330454,191.78,-234.0,1123.99,42332.5,-29312.5,-146755.0
330483,201.3,-260.71,1118.13,23730.0,-12862.5,-172690.0
330511,149.33,-283.89,1106.17,7210.0,-20177.5,-170275.0
330540,29.28,-293.17,1099.1,5862.5,-46725.0,-128275.0
330568,-133.22,-287.55,1093.49,14840.0,-37905.0,-35332.5
330597,-273.4,-277.92,1084.34,10237.5,31885.0,60112.5
330625,-355.14,-276.21,1059.45,3797.5,75792.5,121415.0
330654,-383.08,-288.53,1024.56,-26810.0,49612.5,147525.0
330682,-357.95,-309.88,1013.45,-46007.5,21787.5,150150.0
330711,-270.6,-328.55,1044.2,-47005.0,21770.0,129045.0
330739,-112.97,-334.4,1111.18,-1872.5,16012.5,70595.0
330767,55.02,-333.18,1171.44,58660.0,23380.0,-50120.0
330796,152.5,-336.23,1181.94,82005.0,-28350.0,-116795.0
330824,176.53,-342.58,1153.27,42455.0,-27807.5,-147210.0
330853,131.52,-348.19,1115.93,4480.0,-32550.0,-157342.5
330881,-6.83,-345.99,1092.51,-17115.0,-79117.5,-101780.0
330910,-185.93,-335.5,1093.24,-2100.0,-42280.0,15750.0
330938,-318.05,-325.5,1089.46,15610.0,56770.0,94517.5
330967,-383.81,-323.3,1057.86,1540.0,71452.5,141155.0
330995,-380.52,-331.47,1028.83,-37502.5,39392.5,158900.0
331024,-302.8,-340.99,1045.05,-59482.5,21297.5,120592.5
331052,-173.12,-341.97,1108.25,-28175.0,9677.5,59815.0
331081,-26.47,-335.99,1174.98,26355.0,23765.0,-14647.5
331110,87.96,-330.86,1199.5,63507.5,-16380.0,-88497.5
331139,134.69,-330.86,1177.3,49805.0,-43172.5,-128590.0
331167,106.14,-330.74,1145.95,8820.0,-29610.0,-136167.5
331195,1.71,-321.84,1127.65,7525.0,-43557.5,-100905.0
331224,-141.15,-302.32,1111.66,14910.0,-37502.5,-34545.0
331252,-265.23,-277.18,1090.44,11795.0,20667.5,32445.0
331281,-343.31,-255.1,1054.93,5985.0,54670.0,82110.0
331309,-376.74,-243.51,1013.94,-26215.0,35787.5,110705.0
331338,-371.12,-242.29,997.59,-46917.5,23082.5,113907.5
331366,-323.79,-245.46,1015.65,-46655.0,29032.5,105157.5
331395,-223.63,-244.0,1058.23,-26932.5,10990.0,66657.5
331423,-90.04,-235.46,1108.98,-4357.5,-1540.0,-665.0
331452,21.96,-227.16,1144.48,22277.5,-10307.5,-62387.5
331480,78.81,-227.16,1148.63,38045.0,-24342.5,-101132.5
331509,85.77,-232.78,1137.28,26565.0,-26162.5,-117407.5
331537,45.63,-233.75,1127.89,18060.0,-43540.0,-117845.0
331566,-52.46,-223.02,1114.59,12442.5,-54582.5,-90020.0
331595,-184.95,-201.79,1096.17,3517.5,-34072.5,-24797.5
331623,-293.41,-178.49,1076.41,2607.5,3465.0,37502.5
331652,-354.9,-162.02,1049.93,-1382.5,29190.0,73360.0
331680,-383.32,-156.65,1023.95,-20247.5,31080.0,98472.5
331709,-368.68,-160.06,1017.6,-36085.0,36592.5,111790.0
331737,-314.76,-165.68,1038.71,-30870.0,27720.0,91980.0
331766,-221.19,-168.12,1073.6,-7647.5,15662.5,72415.0
331794,-96.62,-164.09,1111.18,3885.0,13020.0,-140.0
331823,0.24,-156.65,1132.04,32427.5,-8015.0,-55772.5
331852,41.48,-149.57,1115.69,36872.5,-24027.5,-88007.5
331881,17.69,-140.67,1078.97,332.5,-22977.5,-97317.5
331910,-75.64,-127.98,1058.96,-30345.0,-54705.0,-60567.5
331939,-190.32,-111.75,1064.33,-13912.5,-45115.0,8522.5
331967,-270.72,-97.36,1060.3,13125.0,22557.5,56630.0
331996,-308.17,-92.48,1031.39,2380.0,45955.0,88287.5
332025,-281.33,-96.99,1012.36,-39025.0,30257.5,102025.0
332053,-182.88,-103.46,1045.17,-54845.0,5635.0,47897.5
332082,-56.61,-108.34,1110.2,6317.5,11795.0,-16852.5
332110,43.68,-114.19,1143.02,63962.5,11952.5,-79240.0
332139,82.47,-120.29,1123.62,52377.5,-13230.0,-113732.5
332167,53.19,-126.03,1089.95,1120.0,-23170.0,-117600.0
