acc_x,acc_y,acc_z,gyro_x,gyro_y,gyro_z
-430.29,-145.67,965.14,-34825.0,50890.0,154595.0
-462.01,-156.4,954.77,-33320.0,37135.0,180810.0
-477.26,-168.85,947.21,-34177.5,32025.0,207252.5
-470.07,-181.29,943.55,-42262.5,49700.0,229897.5
-431.51,-190.2,944.28,-63822.5,82495.0,240940.0
-356.73,-192.64,953.92,-96250.0,106382.5,225575.0
-252.17,-187.51,976.12,-110635.0,77525.0,185885.0
-131.27,-175.92,1010.16,-98735.0,8312.5,129045.0
-7.69,-161.04,1056.03,-80465.0,-41492.5,66587.5
107.97,-145.79,1110.32,-58835.0,-44992.5,4567.5
207.64,-133.59,1166.44,-18532.5,-24080.0,-55930.0
288.16,-125.9,1215.12,63525.0,-1890.0,-105612.5
351.73,-124.56,1242.94,119332.5,15750.0,-148645.0
398.09,-128.47,1247.33,140192.5,21752.5,-190680.0
422.12,-135.3,1233.91,152442.5,10500.0,-227115.0
418.7,-145.18,1200.48,140577.5,-12267.5,-251720.0
384.42,-158.6,1156.19,94727.5,-49210.0,-266297.5
314.03,-174.09,1118.01,53025.0,-93502.5,-270987.5
198.74,-188.61,1086.65,37467.5,-151900.0,-248167.5
40.38,-199.47,1061.03,24342.5,-202352.5,-180110.0
-136.15,-207.03,1048.83,9012.5,-171885.0,-77402.5
-302.56,-213.38,1049.44,857.5,-67112.5,21892.5
-442.37,-220.09,1051.76,3850.0,30590.0,108797.5
-546.07,-229.6,1046.15,9940.0,85050.0,182035.0
-611.59,-244.49,1029.8,4532.5,113925.0,235567.5
-642.33,-266.2,1004.67,-12967.5,122902.5,271302.5
-642.82,-292.31,975.76,-46165.0,105525.0,293475.0
-617.93,-318.91,954.28,-81725.0,79607.5,304307.5
-570.84,-343.06,952.09,-109112.5,55825.0,310275.0
-493.86,-362.83,981.86,-121817.5,42875.0,311097.5
-370.03,-377.47,1048.83,-105420.0,68967.5,282852.5
-205.57,-382.59,1135.33,-30677.5,84315.0,208915.0
-30.26,-373.81,1214.63,50085.0,51660.0,118177.5
131.88,-354.29,1275.14,92312.5,14822.5,32865.0
268.89,-331.11,1319.31,115902.5,-10955.0,-38727.5
378.32,-310.61,1346.88,140105.0,-22067.5,-102865.0
458.72,-294.87,1349.56,160265.0,-38220.0,-158970.0
512.77,-281.09,1326.87,165060.0,-79922.5,-200392.5
546.8,-267.06,1286.37,145127.5,-122552.5,-240170.0
557.3,-255.71,1235.01,97317.5,-141767.5,-282292.5
536.19,-253.52,1184.38,39182.5,-122535.0,-311237.5
474.46,-262.79,1141.43,-4007.5,-98122.5,-328107.5
353.68,-276.21,1108.13,-25917.5,-120225.0,-310642.5
178.85,-284.63,1091.17,-23275.0,-160807.5,-229355.0
-13.18,-287.68,1093.49,-1155.0,-137585.0,-127960.0
-196.42,-289.38,1099.71,29470.0,-39970.0,-38850.0
-360.39,-291.09,1086.17,37362.5,50015.0,49437.5
-492.15,-291.95,1052.62,6195.0,84595.0,129342.5
-584.14,-292.43,1016.5,-23625.0,94657.5,192062.5
-636.84,-294.75,982.71,-38552.5,97807.5,239697.5
-654.77,-301.71,948.06,-64767.5,87465.0,275467.5
-637.57,-312.81,922.08,-109760.0,66150.0,300965.0
-578.77,-325.5,922.2,-153055.0,62422.5,304465.0
-481.53,-337.21,950.62,-167877.5,71715.0,268520.0
-361.97,-342.33,997.72,-156257.5,74742.5,213377.5
-233.02,-338.43,1057.01,-127802.5,63140.0,158200.0
-99.92,-327.45,1122.4,-86957.5,48947.5,106750.0
35.38,-311.95,1187.55,-49472.5,49385.0,50680.0
166.41,-295.48,1248.55,-12792.5,53305.0,-17045.0
278.65,-280.6,1301.37,38622.5,40495.0,-86100.0
364.05,-270.11,1337.61,97650.0,7822.5,-139720.0
426.39,-266.81,1351.27,137707.5,-24045.0,-185290.0
468.11,-269.38,1342.73,155925.0,-48125.0,-232662.5
484.1,-275.48,1311.62,139247.5,-60007.5,-275590.0
470.68,-284.75,1269.65,97020.0,-63192.5,-303537.5
425.29,-297.44,1229.52,62090.0,-59307.5,-318482.5
340.01,-311.34,1189.74,46322.5,-74847.5,-320880.0
200.69,-321.23,1143.26,38360.0,-134015.0,-284970.0
18.06,-322.69,1098.0,14910.0,-193217.5,-179112.5
-164.7,-319.88,1070.92,-11935.0,-156327.5,-62545.0
-323.42,-316.71,1059.57,-24080.0,-41300.0,23240.0
-456.65,-314.52,1045.91,-18515.0,43015.0,101307.5
-557.3,-314.27,1022.97,-20125.0,58485.0,176610.0
-620.0,-318.91,998.2,-27877.5,55020.0,232942.5
-647.09,-330.62,973.19,-38885.0,54845.0,269955.0
-640.87,-347.21,950.5,-67532.5,51677.5,291987.5
-597.8,-364.78,943.3,-103880.0,70035.0,300772.5
-512.28,-380.4,958.92,-133367.5,105245.0,281960.0
-394.67,-389.3,991.37,-145320.0,104335.0,230282.5
-262.06,-389.18,1036.27,-139755.0,55160.0,173845.0
-122.49,-382.35,1094.22,-119945.0,21787.5,114292.5
18.18,-371.61,1160.46,-82180.0,26530.0,51467.5
152.01,-359.29,1226.95,-29015.0,47057.5,-21367.5
266.33,-346.36,1285.88,53060.0,44957.5,-92435.0
352.46,-336.84,1325.53,140070.0,24430.0,-149555.0
412.73,-334.04,1331.75,195107.5,10430.0,-200445.0
448.72,-336.23,1303.45,190732.5,-1382.5,-246417.5
456.89,-341.84,1253.06,157955.0,-40302.5,-284287.5
434.08,-350.87,1195.97,94657.5,-75600.0,-304955.0
373.2,-363.32,1147.04,33810.0,-107537.5,-314002.5
260.23,-375.39,1110.69,5407.5,-154665.0,-290902.5
98.58,-382.35,1085.56,-6930.0,-207672.5,-214830.0
-81.5,-383.2,1076.41,-13912.5,-199535.0,-105665.0
-251.56,-381.86,1082.14,-13405.0,-114170.0,-2380.0
-397.48,-379.79,1091.41,-3517.5,-11567.5,87657.5
-509.59,-378.2,1092.63,12670.0,55352.5,168052.5
-582.31,-379.66,1080.55,19337.5,89582.5,232365.0
-614.15,-386.74,1057.01,8190.0,114730.0,275572.5
-610.49,-398.7,1027.97,-26110.0,125177.5,294997.5
-576.08,-412.36,1006.38,-73815.0,125632.5,300142.5
-509.96,-425.05,1003.33,-113890.0,121467.5,285215.0
-411.51,-434.2,1020.04,-133332.5,98017.5,245367.5
-278.4,-433.34,1064.08,-139387.5,-71802.5,199850.0
-121.76,-430.78,1127.16,-78942.5,-141085.0,120855.0
12.32,-431.64,1193.65,-25217.5,7262.5,12985.0
107.12,-423.46,1259.53,25585.0,192972.5,-24587.5
195.44,-410.16,1308.33,115062.5,213797.5,-31972.5
284.87,-397.72,1323.94,184520.0,135310.0,-89862.5
349.65,-383.08,1309.43,181545.0,5617.5,-148120.0
381.74,-365.51,1283.68,169085.0,-96477.5,-178010.0
394.18,-347.09,1248.06,149397.5,-109672.5,-197610.0
391.38,-329.77,1197.31,99837.5,-89862.5,-221637.5
366.85,-316.1,1138.02,31430.0,-80990.0,-245735.0
308.05,-307.44,1079.21,-31570.0,-109637.5,-257687.5
205.2,-303.41,1033.1,-78680.0,-170852.5,-234797.5
64.05,-301.22,1012.97,-104650.0,-239172.5,-173897.5
-91.38,-297.19,1032.36,-94815.0,-237405.0,-83895.0
-238.63,-293.78,1082.87,-32182.5,-136045.0,2957.5
-366.61,-293.53,1128.5,43750.0,-4375.0,80202.5
-464.58,-296.7,1143.63,76527.5,84542.5,149047.5
-526.43,-303.17,1130.94,71400.0,122972.5,198747.5
-556.69,-311.1,1104.34,46252.5,131390.0,234482.5
-559.25,-320.49,1077.02,12285.0,126752.5,261677.5
-532.29,-330.74,1058.23,-22820.0,126367.5,271005.0
-477.75,-339.28,1052.62,-52780.0,114625.0,265930.0
-395.77,-345.02,1061.03,-72800.0,82985.0,252507.5
-284.63,-347.94,1084.82,-87255.0,51502.5,221182.5
-149.57,-350.02,1122.4,-83457.5,27370.0,159880.0
-6.47,-349.16,1168.03,-52972.5,29347.5,72485.0
123.59,-343.55,1215.73,-8400.0,29890.0,-7437.5
228.38,-335.26,1256.48,49455.0,15750.0,-66045.0
309.03,-326.84,1281.49,99190.0,7997.5,-106085.0
372.1,-321.47,1282.22,131425.0,8645.0,-146020.0
421.39,-318.42,1260.26,138530.0,420.0,-189542.5
454.08,-314.52,1221.95,130830.0,-16380.0,-237142.5
460.67,-311.47,1171.08,91350.0,-51170.0,-268537.5
434.2,-313.3,1119.11,36907.5,-94850.0,-284340.0
368.07,-319.64,1077.87,-18900.0,-130812.5,-288575.0
252.78,-326.11,1052.49,-66097.5,-181825.0,-271127.5
91.5,-326.11,1048.71,-94255.0,-247520.0,-197592.5
-84.91,-318.42,1076.53,-72905.0,-245717.5,-87255.0
-243.51,-310.0,1127.28,-717.5,-133297.5,7192.5
-372.95,-303.05,1168.39,62212.5,14315.0,81340.0
-470.68,-297.31,1178.52,84035.0,104562.5,142677.5
-538.75,-294.14,1162.17,70455.0,134102.5,196472.5
-579.26,-295.0,1132.65,42280.0,132387.5,244597.5
-588.77,-302.07,1102.15,11270.0,131845.0,275957.5
-569.25,-313.66,1077.02,-19425.0,140752.5,285267.5
-523.99,-326.72,1060.55,-47862.5,140157.5,285582.5
-450.18,-339.16,1057.5,-74812.5,129675.0,267330.0
-350.87,-348.68,1068.11,-92557.5,103267.5,223090.0
-235.34,-354.04,1092.51,-98577.5,59167.5,171220.0
-112.48,-354.9,1133.87,-86187.5,32882.5,110250.0
7.44,-351.48,1186.69,-50470.0,34387.5,47337.5
118.46,-345.14,1238.79,1050.0,40792.5,-11147.5
215.94,-338.18,1279.05,54355.0,33005.0,-66377.5
295.48,-332.82,1300.64,85925.0,17062.5,-116515.0
355.75,-329.77,1302.11,100642.5,-6737.5,-160807.5
398.33,-329.64,1286.73,113137.5,-36925.0,-200602.5
422.97,-332.57,1257.58,111352.5,-68617.5,-233992.5
427.98,-337.94,1220.0,82127.5,-92312.5,-263620.0
408.09,-345.63,1183.16,38535.0,-118545.0,-290465.0
354.17,-353.8,1157.78,-35.0,-147070.0,-303590.0
258.4,-359.17,1147.04,-26862.5,-181562.5,-296135.0
121.39,-357.09,1148.39,-34965.0,-229250.0,-246365.0
-40.75,-347.21,1162.42,-21490.0,-248990.0,-159092.5
-204.35,-333.18,1187.79,13317.5,-196140.0,-60410.0
-347.94,-316.47,1214.02,42245.0,-84507.5,27037.5
-461.28,-297.56,1230.0,53567.5,35367.5,93537.5
-544.85,-280.36,1230.74,66010.0,114870.0,154280.0
-596.7,-269.74,1217.19,77140.0,162697.5,204907.5
-617.44,-267.91,1190.6,72520.0,193515.0,236250.0
-612.2,-273.28,1153.02,45850.0,187320.0,254117.5
-584.14,-282.06,1113.25,4025.0,151742.5,264705.0
-528.87,-292.56,1084.46,-43277.5,115045.0,266367.5
-441.64,-303.29,1077.99,-80080.0,89215.0,245612.5
-325.98,-311.22,1098.12,-94237.5,79117.5,201967.5
-193.61,-313.42,1139.24,-84770.0,68320.0,139405.0
-58.44,-310.0,1192.18,-54267.5,48527.5,75267.5
69.78,-303.41,1248.55,-10972.5,33215.0,8820.0
182.88,-296.7,1298.2,37310.0,28105.0,-57750.0
272.91,-292.8,1328.7,79082.5,21175.0,-116550.0
336.84,-292.19,1334.44,98035.0,4077.5,-161455.0
377.71,-292.92,1319.8,123550.0,-23695.0,-191747.5
399.67,-293.65,1286.61,134575.0,-52342.5,-219660.0
401.62,-294.02,1238.3,102515.0,-71015.0,-248010.0
376.25,-293.53,1185.84,53847.5,-95777.5,-265632.5
314.76,-292.43,1139.24,5197.5,-139352.5,-270637.5
211.79,-287.31,1104.83,-30660.0,-192990.0,-244930.0
76.13,-275.48,1086.17,-50785.0,-235690.0,-180600.0
-72.47,-261.57,1085.56,-53095.0,-226240.0,-99172.5
-216.06,-248.51,1104.1,-40110.0,-146562.5,-21472.5
-344.41,-234.61,1132.4,-14332.5,-27107.5,45640.0
-451.52,-220.45,1153.02,17412.5,68337.5,107887.5
-529.72,-209.84,1157.05,40967.5,121257.5,161087.5
-578.52,-206.06,1144.12,50592.5,146720.0,200935.0
-601.22,-209.96,1114.23,40162.5,147455.0,235042.5
-597.8,-220.33,1074.33,-1032.5,126385.0,260995.0
-564.49,-235.09,1043.1,-60357.5,109515.0,276342.5
-498.74,-252.54,1036.15,-105455.0,105822.5,269657.5
-403.94,-269.38,1052.49,-117635.0,99190.0,237107.5
-288.9,-281.45,1084.95,-107327.5,71382.5,189927.5
-161.53,-287.8,1130.33,-86030.0,42087.5,133262.5
-27.94,-289.14,1186.33,-53725.0,30747.5,68792.5
102.48,-287.07,1245.13,-10307.5,29505.0,-3675.0
217.28,-283.77,1295.64,38640.0,18165.0,-75565.0
307.68,-281.33,1329.43,82845.0,2030.0,-136027.5
369.9,-280.23,1341.27,120522.5,-12267.5,-181650.0
406.63,-279.62,1329.68,143395.0,-29260.0,-214637.5
421.02,-280.11,1296.62,141785.0,-41370.0,-243302.5
409.68,-282.06,1247.33,112630.0,-61880.0,-261310.0
371.12,-284.99,1195.11,61005.0,-87167.5,-269832.5
299.88,-286.94,1150.95,15102.5,-122202.5,-274767.5
182.51,-285.48,1118.25,-6930.0,-185377.5,-254012.5
25.38,-279.99,1099.22,-18515.0,-238350.0,-176645.0
-142.62,-272.06,1098.85,-23485.0,-222442.5,-76352.5
-297.92,-262.18,1116.67,-18637.5,-118790.0,14682.5
-427.85,-251.2,1141.19,4602.5,19845.0,93712.5
-522.04,-243.39,1153.39,40425.0,124740.0,158830.0
-579.38,-241.68,1142.9,53987.5,177327.5,205520.0
-607.8,-245.46,1113.13,39480.0,184817.5,236792.5
-614.51,-254.49,1071.65,5005.0,149065.0,264740.0
-595.85,-269.01,1031.63,-43505.0,94080.0,285985.0
-544.85,-287.19,1009.06,-91367.5,67287.5,285897.5
-459.94,-305.49,1012.11,-121922.5,63402.5,261275.0
-344.53,-319.52,1040.42,-126507.5,63210.0,214760.0
-207.64,-325.74,1090.68,-106627.5,63560.0,153982.5
-61.24,-323.91,1154.24,-65712.5,62090.0,83702.5
81.5,-316.59,1219.51,-19057.5,54285.0,7210.0
207.52,-307.32,1278.32,26652.5,45220.0,-68862.5
306.22,-298.29,1320.53,71452.5,29417.5,-137200.0
373.56,-291.34,1340.54,110092.5,13772.5,-188807.5
411.63,-287.68,1335.53,150657.5,-4865.0,-223650.0
423.1,-288.65,1303.33,162452.5,-33932.5,-251265.0
407.24,-293.65,1251.48,130095.0,-73500.0,-272580.0
361.0,-299.51,1198.04,69807.5,-118002.5,-283500.0
276.09,-303.78,1155.71,21525.0,-165182.5,-274557.5
152.38,-302.32,1130.7,-2205.0,-202387.5,-225487.5
6.34,-295.0,1123.74,-4882.5,-191012.5,-150167.5
-141.76,-284.87,1126.06,2415.0,-129535.0,-70962.5
-280.36,-273.28,1128.5,11217.5,-45185.0,1645.0
-401.14,-261.32,1123.74,20177.5,28490.0,73150.0
-495.08,-251.44,1108.25,23415.0,77700.0,136535.0
-561.2,-245.83,1082.87,17237.5,106260.0,186305.0
-602.56,-245.34,1050.18,1750.0,112472.5,228410.0
-616.1,-251.56,1014.31,-25970.0,108062.5,258037.5
-599.75,-263.4,984.3,-66517.5,96075.0,272387.5
-552.29,-277.92,972.83,-107520.0,90440.0,273000.0
-473.36,-292.43,985.39,-130357.5,87080.0,248097.5
-371.86,-302.93,1017.36,-126630.0,59307.5,209930.0
-251.81,-307.68,1066.04,-105875.0,28595.0,168595.0
-115.78,-306.71,1128.62,-72187.5,31797.5,112437.5
26.72,-301.58,1195.23,-26792.5,50417.5,36347.5
158.11,-293.9,1255.26,19232.5,47337.5,-46130.0
263.52,-285.6,1300.52,62300.0,17727.5,-116515.0
338.79,-279.14,1326.14,104597.5,-8592.5,-169557.5
386.5,-275.23,1327.85,147350.0,-24395.0,-208687.5
408.58,-275.23,1302.47,161017.5,-37257.5,-240047.5
405.41,-280.11,1255.38,135922.5,-54827.5,-265282.5
375.76,-288.04,1202.55,84612.5,-80867.5,-286562.5
308.29,-297.68,1154.36,39480.0,-127925.0,-298147.5
187.76,-304.15,1114.47,13142.5,-205100.0,-266507.5
25.62,-303.78,1093.85,-14892.5,-246802.5,-170957.5
-140.54,-298.17,1098.37,-28560.0,-189997.5,-59972.5
-289.87,-290.12,1118.01,-14157.5,-69317.5,23170.0
-416.51,-281.45,1134.23,20737.5,39987.5,99522.5
-513.01,-275.35,1132.28,45395.0,104825.0,163555.0
-579.74,-273.28,1112.76,41580.0,135747.5,213727.5
-620.25,-276.57,1086.17,24272.5,147857.5,256427.5
-631.59,-286.21,1056.52,-3045.0,155400.0,291182.5
-608.17,-300.36,1026.14,-46112.5,142205.0,307947.5
-545.34,-315.98,1010.4,-99505.0,121922.5,297150.0
-446.4,-328.91,1023.82,-135432.5,106050.0,251860.0
-324.4,-335.74,1064.45,-125737.5,62772.5,188212.5
-191.3,-334.77,1121.91,-88480.0,10342.5,127995.0
-53.68,-327.69,1185.72,-40495.0,-12670.0,69422.5
82.47,-317.93,1246.84,7070.0,35.0,4567.5
208.74,-307.32,1299.06,53340.0,28140.0,-67130.0
312.93,-297.8,1333.22,99207.5,28035.0,-134820.0
389.18,-290.85,1343.83,139282.5,-3377.5,-189210.0
439.2,-287.07,1329.56,159670.0,-35087.5,-233555.0
464.33,-287.19,1291.25,148312.5,-63770.0,-270882.5
459.21,-292.43,1236.71,101622.5,-98735.0,-300037.5
412.36,-303.29,1182.42,38412.5,-142292.5,-317607.5
304.51,-315.61,1143.26,-8015.0,-202492.5,-307772.5
135.91,-322.69,1129.23,-28997.5,-259122.5,-229232.5
-51.73,-323.06,1141.68,-21472.5,-234080.0,-111737.5
-220.21,-318.79,1167.42,-1260.0,-110880.0,-18707.5
-363.32,-311.22,1182.42,18042.5,16800.0,49402.5
-480.56,-302.19,1173.88,29592.5,65450.0,117775.0
-564.37,-295.97,1148.63,30082.5,80045.0,180862.5
-612.32,-295.97,1113.49,19897.5,103215.0,226677.5
-626.84,-302.56,1070.43,-6335.0,126350.0,260225.0
-607.56,-313.91,1026.51,-58117.5,128660.0,278670.0
-554.98,-325.74,999.91,-112052.5,116060.0,279545.0
-466.04,-336.23,1004.06,-143010.0,111965.0,265090.0
-341.11,-342.82,1035.05,-150517.5,109917.5,218855.0
-193.0,-341.97,1087.26,-140210.0,87097.5,149992.5
-37.45,-332.94,1157.54,-107887.5,51555.0,75635.0
112.61,-319.03,1236.59,-48842.5,30222.5,-3832.5
245.22,-304.51,1305.52,27702.5,26722.5,-80272.5
349.9,-294.51,1345.42,94815.0,8120.0,-147507.5
421.27,-293.04,1349.93,133140.0,-27912.5,-201250.0
459.7,-299.63,1323.94,127977.5,-62072.5,-242655.0
466.16,-310.61,1283.44,85242.5,-83177.5,-273017.5
440.54,-324.15,1246.23,39655.0,-90772.5,-288085.0
380.88,-337.7,1218.66,15032.5,-104492.5,-294000.0
278.4,-347.21,1199.38,11725.0,-143150.0,-282397.5
128.22,-352.09,1184.01,18200.0,-199202.5,-224962.5
-50.26,-353.92,1175.23,15627.5,-202335.0,-118842.5
-222.28,-352.34,1180.47,4025.0,-102305.0,-7297.5
-364.05,-347.46,1190.23,6755.0,37152.5,80797.5
-465.8,-342.09,1186.57,24290.0,114415.0,146982.5
-529.85,-337.94,1165.59,30520.0,136500.0,192727.5
-563.4,-336.96,1132.4,22802.5,128922.5,229565.0
-565.71,-340.14,1094.22,-7367.5,117425.0,257092.5
-535.21,-346.11,1062.62,-51835.0,108220.0,263812.5
-476.17,-351.6,1049.81,-84315.0,103057.5,252717.5
-393.57,-354.29,1056.52,-97580.0,95025.0,224875.0
-293.78,-352.34,1077.99,-95760.0,61250.0,185430.0
-182.88,-345.99,1111.91,-76632.5,20230.0,140997.5
-66.37,-336.96,1153.39,-46340.0,2957.5,91262.5
52.58,-325.74,1198.53,-18270.0,12810.0,38482.5
171.04,-314.03,1244.52,9310.0,42507.5,-23065.0
277.79,-303.66,1281.49,47617.5,40810.0,-91752.5
360.63,-297.07,1301.5,90702.5,7945.0,-149327.5
414.8,-295.85,1300.28,121975.0,-16852.5,-195492.5
440.66,-299.63,1276.0,119315.0,-29155.0,-229302.5
441.03,-306.46,1236.35,94167.5,-37625.0,-254940.0
418.22,-315.25,1193.65,58730.0,-47740.0,-277690.0
362.22,-326.47,1154.36,32200.0,-82512.5,-298882.5
252.3,-337.94,1119.59,16292.5,-163817.5,-286842.5
87.47,-345.99,1099.46,-6790.0,-238000.0,-207637.5
-98.7,-349.65,1104.34,-22015.0,-221865.0,-88357.5
-270.35,-348.68,1128.26,-10447.5,-111405.0,18952.5
-407.97,-343.67,1149.0,19215.0,17850.0,105490.0
-505.93,-337.7,1148.26,40442.5,95480.0,171850.0
-567.18,-334.52,1125.69,39742.5,120102.5,223475.0
-596.34,-337.21,1091.41,24990.0,114327.5,260627.5
-595.12,-345.99,1053.1,-4375.0,106172.5,283570.0
-562.66,-358.19,1021.02,-50645.0,102970.0,291987.5
-496.42,-370.39,1010.89,-92732.5,105700.0,281435.0
-395.52,-380.27,1030.17,-111230.0,115710.0,247432.5
-267.42,-385.4,1072.5,-106697.5,117285.0,190452.5
-124.81,-383.45,1130.57,-86642.5,87290.0,119420.0
20.86,-375.88,1199.99,-52447.5,41265.0,46025.0
156.65,-366.24,1273.19,-122.5,9520.0,-33460.0
269.13,-357.83,1336.51,69860.0,-2222.5,-103407.5
353.07,-354.04,1372.26,139230.0,-6912.5,-160720.0
408.7,-354.41,1369.33,164692.5,-20265.0,-210210.0
436.39,-356.24,1334.44,155837.5,-46305.0,-247310.0
437.25,-358.68,1281.12,116235.0,-73902.5,-273227.5
408.7,-363.8,1226.34,57855.0,-103075.0,-291200.0
339.04,-370.88,1187.3,10990.0,-134102.5,-297150.0
217.77,-374.3,1169.49,-4007.5,-173897.5,-264232.5
59.29,-371.12,1166.93,7647.5,-193077.5,-191415.0
-109.56,-363.8,1167.66,28980.0,-168350.0,-98122.5
-268.03,-354.53,1163.51,35630.0,-97422.5,-8347.5
-404.06,-344.77,1149.73,31272.5,-14717.5,75565.0
-508.5,-336.48,1125.69,20772.5,51275.0,150727.5
-576.57,-331.72,1095.56,6405.0,102410.0,208740.0
-610.37,-332.69,1060.91,-8802.5,134312.5,248832.5
-610.24,-339.65,1020.9,-37345.0,131792.5,276202.5
-574.86,-350.75,985.88,-84262.5,102410.0,284690.0
-504.35,-363.07,976.24,-124670.0,84437.5,271512.5
-401.87,-373.08,997.35,-137340.0,83230.0,233117.5
-278.89,-377.47,1041.03,-121415.0,68722.5,175945.0
-145.55,-375.27,1100.07,-90212.5,43505.0,117372.5
-6.47,-368.32,1169.25,-48720.0,25830.0,51957.5
127.61,-358.56,1239.03,4165.0,15872.5,-21857.5
243.63,-348.07,1294.54,56875.0,15120.0,-91052.5
333.79,-340.62,1324.43,101780.0,11322.5,-150867.5
395.28,-338.43,1322.6,136972.5,-12722.5,-197400.0
427.73,-341.11,1290.39,136727.5,-44607.5,-233327.5
431.39,-347.09,1240.01,97107.5,-72520.0,-257547.5
405.77,-355.75,1189.62,39847.5,-89810.0,-269447.5
346.24,-366.37,1152.29,-4410.0,-110722.5,-269692.5
246.2,-374.54,1133.01,-24325.0,-143010.0,-243880.0
111.51,-377.1,1132.53,-28770.0,-169505.0,-183837.5
-37.94,-375.03,1147.53,-9362.5,-153615.0,-100730.0
-179.83,-369.54,1166.44,22207.5,-85137.5,-16205.0
-300.0,-360.88,1173.88,44660.0,3797.5,52482.5
-394.43,-350.38,1160.83,52150.0,64680.0,112105.0
-464.45,-340.75,1130.45,43925.0,90072.5,167440.0
-509.47,-334.89,1092.02,23975.0,100222.5,218487.5
-523.99,-333.91,1051.27,-7157.5,108167.5,255202.5
-505.81,-336.48,1015.77,-51467.5,113277.5,270585.0
-456.77,-340.26,996.98,-90615.0,109357.5,265265.0
-378.81,-342.82,1001.25,-110530.0,102865.0,236985.0
-278.16,-340.99,1024.19,-106032.5,80465.0,188632.5
-167.02,-333.55,1057.62,-83650.0,33372.5,132650.0
-53.56,-322.08,1098.37,-57610.0,-10150.0,81585.0
60.15,-308.9,1143.63,-31727.5,-20597.5,28752.5
170.68,-295.0,1188.4,-7175.0,-4427.5,-31185.0
271.45,-283.16,1226.22,24080.0,17657.5,-93082.5
353.19,-276.45,1249.16,63665.0,15837.5,-152967.5
406.87,-276.7,1252.33,99032.5,-9957.5,-202230.0
429.07,-285.11,1236.96,103477.5,-41352.5,-239400.0
420.66,-297.92,1212.92,83545.0,-66605.0,-264285.0
382.96,-309.88,1192.06,50645.0,-83125.0,-277900.0
308.9,-317.93,1178.15,32760.0,-103950.0,-278757.5
189.71,-321.1,1168.64,37450.0,-133770.0,-240992.5
34.16,-320.01,1160.59,48860.0,-140035.0,-153265.0
-128.71,-315.61,1153.14,42595.0,-91875.0,-41107.5
-270.11,-309.27,1147.78,17325.0,1697.5,55702.5
-376.98,-302.56,1140.33,9187.5,79100.0,129185.0
-449.57,-297.31,1123.74,13370.0,113487.5,181510.0
-494.1,-295.24,1096.54,11497.5,111475.0,218662.5
-514.35,-298.17,1061.28,-3062.5,92592.5,246417.5
-509.11,-305.37,1025.29,-34842.5,72327.5,269132.5
-470.8,-315.25,1003.08,-76317.5,72695.0,279492.5
-392.35,-325.62,1005.65,-103915.0,100310.0,258667.5
-281.7,-332.21,1029.19,-102602.5,119000.0,203472.5
-159.09,-331.72,1066.77,-81165.0,105875.0,135887.5
-37.94,-324.4,1116.3,-55020.0,79187.5,73237.5
77.84,-312.81,1171.69,-26722.5,52150.0,9257.5
180.07,-300.12,1224.39,8225.0,20020.0,-56315.0
262.06,-289.02,1264.41,51117.5,-5985.0,-105945.0
326.23,-282.67,1282.34,91682.5,-16240.0,-149520.0
371.12,-280.36,1272.09,116252.5,-35122.5,-191485.0
391.62,-281.09,1236.84,107135.0,-71347.5,-224945.0
385.76,-285.72,1190.35,59395.0,-105857.5,-249515.0
348.68,-294.51,1150.46,5022.5,-131110.0,-264705.0
268.03,-304.15,1128.13,-31535.0,-162960.0,-258160.0
140.54,-310.37,1128.99,-46112.5,-202860.0,-205572.5
-15.74,-312.69,1151.68,-27037.5,-209492.5,-115972.5
-171.53,-313.42,1184.38,14612.5,-140490.0,-20212.5
-305.73,-312.56,1206.46,50802.5,-24657.5,57312.5
-410.16,-309.88,1205.36,67480.0,67217.5,122517.5
-483.36,-307.93,1182.18,66325.0,114572.5,175682.5
-528.02,-310.12,1142.41,50277.5,125055.0,224122.5
-540.34,-316.96,1093.85,12512.5,118335.0,264687.5
-511.06,-326.72,1052.37,-46410.0,113837.5,281645.0
-437.25,-336.96,1036.15,-92872.5,120102.5,260050.0
-331.6,-343.06,1046.88,-105105.0,114817.5,209982.5
-211.3,-341.72,1076.41,-92347.5,74480.0,155610.0
-83.2,-333.43,1121.42,-66815.0,33827.5,103687.5
49.04,-321.1,1174.86,-29575.0,21350.0,43032.5
176.53,-307.07,1223.9,12565.0,24815.0,-27387.5
287.92,-293.65,1257.09,49630.0,16362.5,-95690.0
373.81,-286.21,1267.82,79257.5,-13860.0,-153107.5
430.66,-286.58,1254.65,100642.5,-51677.5,-196175.0
459.45,-293.65,1219.63,90160.0,-77245.0,-229775.0
459.21,-304.76,1174.13,46532.5,-90247.5,-251352.5
426.88,-318.3,1134.23,-7035.0,-99750.0,-254712.5
360.39,-333.43,1116.3,-48650.0,-115500.0,-242095.0
256.44,-345.99,1126.79,-65695.0,-138985.0,-219747.5
116.39,-353.07,1158.63,-39970.0,-174300.0,-166320.0
-41.11,-355.63,1197.43,18392.5,-171290.0,-83772.5
-191.54,-354.04,1226.59,60182.5,-100730.0,210.0
-318.79,-348.43,1236.84,72590.0,717.5,72485.0
-415.78,-342.58,1226.34,77962.5,85277.5,136430.0
-482.39,-339.77,1198.04,73237.5,142905.0,194022.5
-517.28,-342.33,1157.05,50102.5,178255.0,248272.5
-512.64,-349.9,1111.42,962.5,194005.0,285810.0
-462.01,-360.63,1075.55,-64225.0,193742.5,288382.5
-373.08,-370.51,1061.16,-111650.0,170292.5,251107.5
-265.72,-375.03,1067.62,-121642.5,91227.5,203122.5
-144.94,-374.66,1094.95,-114135.0,2555.0,159985.0
-6.34,-371.98,1144.36,-99960.0,-24885.0,95112.5
135.18,-366.61,1206.58,-58607.5,-7140.0,4830.0
258.15,-357.83,1265.99,5477.5,16520.0,-71872.5
356.73,-348.8,1308.82,75932.5,17237.5,-127925.0
431.88,-344.28,1324.19,143045.0,-5127.5,-176400.0
481.78,-345.02,1302.23,161577.5,-30957.5,-219852.5
502.52,-348.43,1251.84,129097.5,-74112.5,-255500.0
489.59,-355.02,1194.38,68985.0,-109252.5,-271512.5
441.64,-366.0,1149.24,4462.5,-119717.5,-274330.0
352.09,-379.18,1130.57,-41825.0,-110022.5,-266105.0
212.28,-388.33,1136.43,-56647.5,-119105.0,-225207.5
38.31,-390.4,1159.0,-32235.0,-143202.5,-134400.0
-133.59,-388.57,1189.01,17780.0,-114747.5,-32375.0
-281.33,-383.81,1210.48,53340.0,-26337.5,49525.0
-398.57,-377.1,1209.87,68285.0,61845.0,118930.0
-483.61,-371.73,1185.6,68775.0,117705.0,183907.5
-533.51,-370.76,1144.85,47652.5,154280.0,241535.0
-543.27,-375.03,1097.27,332.5,175227.5,283622.5
-508.13,-382.23,1058.35,-66342.5,174895.0,294787.5
-429.56,-389.67,1043.95,-118282.5,159022.5,262290.0
-324.52,-392.84,1054.81,-128100.0,108500.0,204435.0
-209.6,-390.16,1085.56,-114380.0,39287.5,151200.0
-86.86,-383.57,1135.33,-93467.5,7385.0,104055.0
42.46,-373.81,1198.53,-56315.0,19932.5,43855.0
167.14,-360.02,1263.07,-3622.5,45115.0,-26897.5
275.23,-344.77,1313.7,54110.0,50820.0,-92277.5
359.17,-335.62,1338.83,109165.0,29365.0,-147017.5
416.26,-335.26,1332.12,154052.5,-15400.0,-192237.5
445.54,-339.89,1294.79,152005.0,-64190.0,-232960.0
443.84,-345.87,1241.47,98717.5,-95550.0,-259385.0
407.72,-354.41,1192.92,31395.0,-104422.5,-268030.0
330.13,-366.98,1162.9,-15050.0,-114537.5,-265055.0
203.98,-379.18,1154.73,-24815.0,-147735.0,-230982.5
39.28,-386.25,1166.08,-7245.0,-175980.0,-152985.0
-133.1,-388.81,1189.13,20895.0,-141872.5,-55965.0
-286.46,-387.47,1209.02,48055.0,-44117.5,26600.0
-410.16,-382.23,1209.75,68197.5,55702.5,96670.0
-498.86,-376.13,1185.6,71190.0,117652.5,159390.0
-552.29,-373.08,1143.14,48492.5,145145.0,212292.5
-569.25,-373.32,1092.88,1785.0,141767.5,249812.5
-549.0,-374.78,1050.79,-57557.5,119402.5,260837.5
-495.32,-375.52,1032.85,-100607.5,94657.5,252997.5
-411.75,-374.78,1041.39,-109620.0,84630.0,226047.5
-305.12,-370.03,1067.01,-97650.0,64172.5,184905.0
-181.66,-360.14,1105.32,-82302.5,37187.5,136167.5
-47.58,-346.36,1153.63,-56052.5,26110.0,76632.5
86.74,-329.4,1203.77,-18637.5,26670.0,6895.0
208.13,-310.73,1245.13,23327.5,20807.5,-65345.0
305.73,-295.0,1268.8,67375.0,-2205.0,-124740.0
379.18,-287.68,1269.04,106050.0,-31150.0,-171342.5
430.9,-289.99,1243.67,116725.0,-48510.0,-215827.5
457.74,-297.56,1195.36,88760.0,-64750.0,-258965.0
449.94,-309.51,1137.53,34860.0,-91420.0,-284690.0
399.92,-329.03,1090.92,-26897.5,-124775.0,-286685.0
300.97,-354.53,1073.6,-77157.5,-168805.0,-265230.0
154.45,-377.22,1094.34,-100660.0,-209632.5,-206342.5
-16.35,-392.47,1146.56,-77420.0,-201075.0,-114292.5
-179.1,-401.75,1212.44,-1907.5,-121922.5,-29155.0
-316.71,-405.28,1263.31,72450.0,-1190.0,41160.0
-426.27,-404.31,1277.34,107782.5,80482.5,105245.0
-504.84,-401.75,1254.77,108955.0,109847.5,166950.0
-552.17,-401.01,1208.04,81952.5,113172.5,218382.5
-568.28,-402.36,1151.68,34545.0,108167.5,258335.0
-550.34,-404.55,1102.39,-25112.5,107730.0,280315.0
-497.52,-407.36,1073.48,-74760.0,113505.0,283202.5
-412.36,-409.55,1065.79,-92662.5,109690.0,260050.0
-302.32,-408.33,1073.84,-92400.0,86712.5,216965.0
-174.22,-402.6,1095.32,-84647.5,51100.0,164220.0
-33.67,-393.82,1130.82,-67025.0,28735.0,103530.0
109.19,-383.08,1177.91,-34545.0,32760.0,31867.5
240.58,-371.12,1227.32,7927.5,45815.0,-45237.5
348.68,-360.51,1267.34,50750.0,38097.5,-116865.0
426.63,-355.26,1288.69,90247.5,10395.0,-172235.0
475.31,-357.7,1285.15,117600.0,-24202.5,-215477.5
496.17,-365.27,1258.55,120505.0,-54127.5,-248832.5
490.07,-375.39,1218.54,95340.0,-70490.0,-272405.0
453.35,-387.23,1177.67,51012.5,-78995.0,-288067.5
373.2,-400.4,1147.41,7612.5,-103950.0,-292302.5
235.34,-412.36,1134.84,-23712.5,-152915.0,-256882.5
52.22,-420.66,1143.38,-32130.0,-181247.5,-159687.5
-133.71,-424.44,1169.74,-10727.5,-133035.0,-46375.0
-291.34,-422.49,1198.16,24955.0,-19932.5,36032.5
-416.02,-414.8,1206.21,58257.5,71890.0,103337.5
-507.52,-406.5,1184.74,68565.0,107170.0,168682.5
-561.93,-401.87,1144.73,46182.5,121292.5,222670.0
-578.52,-401.38,1100.2,1102.5,134400.0,256410.0
-560.59,-402.48,1062.38,-50435.0,132632.5,269535.0
-513.86,-403.58,1041.39,-92155.0,113365.0,263830.0
-444.93,-403.09,1042.61,-105595.0,91665.0,243320.0
-358.19,-399.79,1060.18,-96582.5,66220.0,212275.0
-256.69,-393.45,1088.24,-79222.5,32147.5,173635.0
-140.79,-385.4,1125.21,-56735.0,6702.5,128625.0
-14.15,-376.25,1168.15,-31762.5,12705.0,65940.0
109.92,-364.29,1210.0,-4095.0,30677.5,-5915.0
219.11,-350.51,1243.67,26022.5,32777.5,-71802.5
307.07,-338.67,1263.07,56665.0,7315.0,-125825.0
373.81,-332.82,1265.75,82022.5,-26582.5,-171622.5
419.56,-334.16,1251.11,96040.0,-47862.5,-215687.5
442.37,-341.11,1220.24,89022.5,-59832.5,-253015.0
439.81,-352.82,1177.42,61075.0,-72117.5,-281102.5
403.33,-369.66,1132.28,19530.0,-98595.0,-295680.0
326.59,-388.94,1101.42,-27510.0,-127732.5,-286457.5
208.62,-406.38,1094.95,-66360.0,-158252.5,-256970.0
51.0,-419.56,1109.47,-74760.0,-194495.0,-190785.0
-126.03,-427.49,1142.16,-39760.0,-188352.5,-89232.5
-289.51,-429.68,1183.4,21105.0,-95060.0,10237.5
-421.14,-426.02,1209.14,65800.0,33127.5,88830.0
-516.43,-420.41,1206.09,80937.5,115115.0,155067.5
-575.72,-417.48,1179.25,70350.0,152320.0,209335.0
-602.68,-420.66,1137.28,42525.0,160055.0,248850.0
-602.07,-428.1,1090.44,-2905.0,142852.5,273630.0
-574.74,-437.49,1052.62,-59832.5,118527.5,285827.5
-518.62,-447.01,1036.27,-103565.0,98857.5,278372.5
-434.08,-453.6,1042.86,-114835.0,75477.5,248745.0
-328.79,-455.3,1066.28,-104055.0,41142.5,201722.5
-212.28,-451.77,1104.1,-81147.5,10762.5,154262.5
-86.38,-444.57,1155.83,-50890.0,17027.5,108797.5
45.87,-433.71,1214.14,-11970.0,49052.5,47092.5
173.48,-419.44,1267.46,28367.5,64137.5,-24150.0
285.72,-405.28,1306.86,65380.0,47722.5,-95112.5
373.81,-396.99,1326.26,101990.0,9992.5,-160055.0
431.88,-396.5,1322.36,136605.0,-31552.5,-208915.0
462.62,-403.58,1293.69,148365.0,-61827.5,-243880.0
468.85,-415.29,1245.01,116917.5,-71417.5,-275240.0
448.23,-428.59,1188.77,63490.0,-71120.0,-294140.0
395.04,-443.47,1139.24,9362.5,-75477.5,-296642.5
299.88,-459.7,1107.52,-28490.0,-98980.0,-276745.0
158.36,-474.82,1096.54,-46865.0,-146527.5,-228690.0
-16.47,-486.78,1106.05,-44345.0,-188300.0,-144900.0
-194.35,-494.34,1134.36,-18882.5,-167422.5,-46042.5
-349.65,-494.1,1169.37,18322.5,-74200.0,40495.0
-469.58,-486.41,1189.87,53462.5,32077.5,112892.5
-549.73,-476.04,1184.86,69037.5,104282.5,173337.5
-592.68,-467.26,1158.76,57032.5,145600.0,218977.5
-604.39,-460.67,1119.47,25795.0,153545.0,250425.0
-588.16,-455.18,1077.5,-19337.5,124460.0,270270.0
-541.31,-450.91,1047.86,-64575.0,87377.5,264705.0
-471.16,-446.03,1037.98,-80640.0,49525.0,232225.0
-390.64,-437.25,1044.08,-70087.5,15050.0,198292.5
-302.44,-425.78,1059.2,-55125.0,-8102.5,166687.5
-203.62,-414.07,1080.07,-42455.0,-9082.5,135362.5
-90.04,-402.11,1105.93,-35490.0,24482.5,94727.5
35.38,-389.18,1135.94,-25060.0,64505.0,39095.0
162.87,-375.64,1167.3,-7472.5,68652.5,-29032.5
276.57,-364.05,1195.72,14822.5,27072.5,-104457.5
361.73,-357.7,1215.49,38290.0,-28227.5,-169750.0
414.19,-359.53,1222.32,59535.0,-66990.0,-216755.0
436.76,-368.56,1212.92,79660.0,-77385.0,-250827.5
432.12,-383.45,1186.57,72922.5,-71890.0,-274400.0
398.57,-402.72,1150.34,43662.5,-77892.5,-290587.5
324.4,-422.61,1118.62,1732.5,-116322.5,-294000.0
197.88,-439.57,1105.69,-38535.0,-180477.5,-261747.5
28.91,-450.91,1118.01,-53445.0,-225627.5,-177905.0
-149.69,-453.72,1154.12,-31692.5,-193165.0,-69930.0
-306.22,-447.74,1200.97,14000.0,-79310.0,24045.0
-427.0,-437.13,1232.81,63612.5,50610.0,95777.5
-511.67,-427.49,1231.47,93747.5,130567.5,154892.5
-563.15,-421.63,1198.53,84542.5,158830.0,207445.0
-580.72,-420.66,1148.75,43207.5,161017.5,248727.5
-563.15,-422.97,1098.24,-19180.0,151480.0,270515.0
-512.52,-426.63,1063.84,-83562.5,129202.5,268957.5
-433.1,-430.17,1055.54,-120715.0,94272.5,246347.5
-331.84,-430.42,1073.72,-125475.0,41545.0,209282.5
-218.01,-427.12,1112.27,-103582.5,612.5,167335.0
-95.4,-422.12,1161.56,-65222.5,-11445.0,118912.5
32.82,-414.8,1210.24,-19565.0,7752.5,55107.5
156.65,-403.82,1249.52,21840.0,23467.5,-16030.0
267.67,-392.11,1275.02,61950.0,17307.5,-82512.5
360.02,-383.2,1282.46,100887.5,7385.0,-140875.0
429.56,-380.76,1266.48,123235.0,-10325.0,-192307.5
472.38,-385.15,1227.69,111860.0,-44870.0,-237177.5
484.34,-394.79,1177.54,76545.0,-80885.0,-272930.0
459.7,-409.43,1129.96,21682.5,-110372.5,-289887.5
393.69,-427.37,1098.98,-33530.0,-145285.0,-289345.0
279.5,-445.91,1095.56,-67305.0,-190470.0,-266297.5
119.32,-462.14,1123.86,-59867.5,-216072.5,-194617.5
-56.24,-471.65,1177.18,-14787.5,-167895.0,-87797.5
-211.91,-472.38,1231.96,39532.5,-42647.5,3535.0
-336.48,-466.28,1260.63,80990.0,72677.5,71680.0
-429.81,-456.28,1254.04,100537.5,125545.0,135642.5
-490.68,-447.5,1219.27,91087.5,147070.0,193357.5
-517.28,-441.88,1168.27,51467.5,152915.0,238052.5
-509.96,-437.98,1116.42,-10115.0,145250.0,259560.0
-471.16,-434.93,1079.7,-65485.0,127925.0,264372.5
-400.89,-432.0,1067.01,-99837.5,114082.5,247957.5
-304.15,-427.61,1075.8,-108552.5,94342.5,208355.0
-189.1,-419.68,1101.9,-101115.0,63980.0,157027.5
-63.32,-408.7,1142.65,-79012.5,40670.0,98455.0
64.05,-395.04,1191.45,-44537.5,31850.0,33442.5
183.98,-379.79,1240.5,-2607.5,34615.0,-32252.5
289.14,-365.15,1281.24,49507.5,38185.0,-92522.5
374.91,-354.78,1302.47,108307.5,29207.5,-145862.5
437.37,-351.24,1294.66,136955.0,5757.5,-197610.0
470.8,-355.26,1260.38,130935.0,-31062.5,-243880.0
467.75,-366.61,1210.12,93222.5,-80815.0,-274995.0
423.1,-384.54,1160.46,29977.5,-139510.0,-287787.5
329.77,-407.24,1130.33,-31867.5,-204715.0,-280052.5
184.95,-430.54,1132.04,-61390.0,-253610.0,-229967.5
9.64,-447.5,1167.78,-46707.5,-226415.0,-133752.5
-159.09,-454.21,1221.83,6895.0,-106137.5,-32287.5
-300.61,-452.74,1261.48,67900.0,32410.0,44327.5
-411.75,-446.52,1264.77,104965.0,108972.5,111615.0
-490.56,-440.18,1233.18,106137.5,135152.5,173705.0
-535.95,-435.78,1179.98,73465.0,140560.0,223737.5
-545.46,-432.73,1119.72,20895.0,137007.5,259595.0
-516.3,-430.66,1068.48,-48755.0,131250.0,272160.0
-450.91,-427.98,1043.47,-104807.5,125317.5,259192.5
-356.12,-423.1,1045.66,-127190.0,104335.0,224542.5
-243.02,-414.31,1068.84,-125877.5,60935.0,175525.0
-120.54,-401.62,1112.03,-107327.5,29802.5,120785.0
5.98,-386.01,1168.03,-68407.5,23222.5,62912.5
130.3,-368.93,1226.1,-18305.0,31045.0,-3990.0
240.83,-352.46,1275.14,42402.5,24920.0,-68705.0
329.03,-340.87,1303.45,99785.0,-262.5,-123742.5
392.35,-337.21,1304.42,127977.5,-27457.5,-172900.0
429.44,-339.53,1280.39,126315.0,-48177.5,-211785.0
438.59,-345.26,1239.76,97195.0,-61512.5,-236932.5
419.44,-354.53,1196.09,47215.0,-69597.5,-247905.0
371.61,-367.46,1164.12,210.0,-82320.0,-252787.5
286.94,-382.35,1149.61,-18200.0,-121520.0,-252140.0
155.55,-395.52,1151.68,-10710.0,-176417.5,-218925.0
-9.88,-404.92,1167.91,8855.0,-189105.0,-135660.0
-176.17,-409.55,1191.82,29312.5,-117320.0,-38937.5
-318.66,-407.97,1210.0,49105.0,-3167.5,39690.0
-429.44,-400.4,1208.53,69615.0,76160.0,107100.0
-507.15,-391.74,1183.52,75302.5,110390.0,165970.0
-552.66,-386.62,1140.82,54460.0,122920.0,213412.5
-565.71,-385.03,1091.17,9012.5,126070.0,244265.0
-548.02,-384.79,1048.47,-45290.0,115955.0,259140.0
-501.66,-383.93,1023.7,-85837.5,95427.5,260942.5
-425.9,-382.96,1021.14,-112017.5,81970.0,244195.0
-323.3,-380.4,1039.2,-117355.0,76965.0,204820.0
-202.52,-373.2,1073.84,-110040.0,72362.5,152495.0
-71.49,-361.24,1123.38,-88742.5,70385.0,96810.0
62.95,-345.75,1183.89,-50505.0,69825.0,31850.0
187.39,-327.81,1244.77,2310.0,63507.5,-42647.5
288.65,-310.37,1293.93,66622.5,38797.5,-109007.5
363.8,-298.17,1318.7,138407.5,6405.0,-156887.5
414.56,-296.09,1308.33,169172.5,-23415.0,-195702.5
440.18,-303.29,1263.92,162977.5,-63122.5,-232085.0
434.81,-315.49,1197.67,109567.5,-95585.0,-258580.0
389.06,-335.26,1134.6,13072.5,-115622.5,-265947.5
293.78,-364.05,1100.93,-67147.5,-144497.5,-253207.5
149.94,-392.11,1106.66,-90825.0,-186515.0,-210910.0
-17.93,-408.21,1147.53,-56402.5,-197785.0,-134680.0
-179.46,-411.26,1202.8,21402.5,-138460.0,-52307.5
-318.66,-406.63,1240.25,91000.0,-27842.5,19162.5
-430.66,-399.67,1238.67,125860.0,65117.5,87902.5
-511.91,-392.47,1199.63,114642.5,113680.0,156170.0
-558.88,-386.01,1140.46,66290.0,131967.5,209072.5
-570.72,-381.62,1077.75,3972.5,122360.0,239120.0
-550.46,-378.57,1026.39,-59552.5,89582.5,248955.0
-504.84,-375.15,999.42,-102007.5,58065.0,248395.0
-433.34,-371.86,999.3,-116007.5,47810.0,234955.0
-335.99,-367.59,1018.94,-107065.0,51747.5,203805.0
-217.4,-360.14,1050.42,-95305.0,57400.0,159337.5
-84.18,-349.41,1092.63,-82320.0,65100.0,103460.0
53.19,-335.5,1144.85,-57995.0,65117.5,36120.0
180.68,-319.64,1200.97,-17500.0,47250.0,-38780.0
284.63,-306.22,1250.99,34895.0,7945.0,-108237.5
359.41,-299.63,1283.68,106242.5,-25935.0,-160947.5
405.41,-302.93,1284.42,146615.0,-47127.5,-202772.5
422.36,-313.42,1254.53,131075.0,-62580.0,-237352.5
409.43,-326.72,1212.31,83895.0,-71960.0,-256147.5
365.39,-341.84,1178.52,27877.5,-86222.5,-265527.5
281.94,-357.22,1163.88,-385.0,-117215.0,-266735.0
150.67,-368.32,1168.76,2467.5,-163730.0,-237650.0
-17.45,-372.1,1186.94,37240.0,-178570.0,-157955.0
-189.59,-369.05,1206.34,70962.5,-119595.0,-54827.5
-339.65,-361.12,1211.46,88637.5,-1925.0,30065.0
-458.11,-351.36,1189.99,91630.0,90720.0,108815.0
-539.61,-343.55,1144.36,68722.5,139107.5,176242.5
-582.67,-340.14,1086.04,23660.0,155907.5,222425.0
-589.5,-340.87,1027.97,-32497.5,139510.0,240852.5
-565.47,-344.53,983.2,-85837.5,91070.0,244475.0
-512.64,-349.16,964.78,-122412.5,42735.0,239960.0
-428.95,-353.07,976.0,-138635.0,24920.0,221917.5
-317.2,-353.8,1011.38,-130410.0,20282.5,182052.5
-183.73,-348.19,1066.28,-108010.0,25847.5,131705.0
-36.36,-336.23,1135.82,-73062.5,44537.5,69020.0
110.04,-320.37,1209.26,-16835.0,58362.5,-8750.0
237.41,-302.32,1271.97,51660.0,44660.0,-85575.0
334.52,-286.09,1309.91,119385.0,6370.0,-145792.5
400.16,-276.82,1311.5,165235.0,-35490.0,-191100.0
438.35,-275.6,1276.0,163345.0,-70052.5,-228532.5
447.86,-279.01,1214.39,125650.0,-87605.0,-255377.5
422.73,-286.94,1145.34,44817.5,-91070.0,-260312.5
357.22,-301.1,1094.95,-34720.0,-95585.0,-248080.0
250.71,-318.66,1077.99,-70437.5,-120855.0,-216772.5
113.95,-333.79,1092.39,-62370.0,-155172.5,-166617.5
-38.31,-344.04,1127.77,-17482.5,-166285.0,-101867.5
-193.0,-348.68,1165.1,34615.0,-120295.0,-24185.0
-332.57,-347.7,1185.11,69965.0,-36015.0,57837.5
-440.05,-344.28,1176.81,83142.5,47197.5,130392.5
-509.35,-342.21,1141.92,67305.0,103950.0,185727.5
-544.85,-341.97,1090.8,28105.0,115132.5,224087.5
-548.27,-343.06,1039.93,-20597.5,89722.5,251912.5
-516.18,-345.02,1002.84,-59640.0,59377.5,266577.5
-443.35,-346.72,987.1,-96092.5,39847.5,267435.0
-330.01,-347.21,996.37,-116882.5,32812.5,238175.0
-185.93,-342.94,1030.66,-116112.5,27177.5,189752.5
-22.33,-331.84,1088.0,-96897.5,41825.0,125300.0
146.89,-315.49,1157.41,-48965.0,59762.5,38027.5
302.19,-297.31,1224.64,14752.5,42122.5,-58520.0
424.8,-282.43,1278.19,92050.0,665.0,-144217.5
505.81,-276.94,1298.93,155435.0,-28227.5,-207462.5
546.07,-281.58,1277.58,164465.0,-44765.0,-247940.0
551.2,-291.7,1224.64,130322.5,-59850.0,-267085.0
525.82,-304.02,1161.56,62002.5,-73622.5,-271180.0
465.43,-319.27,1112.4,-8575.0,-90807.5,-266840.0
362.22,-335.5,1090.31,-47145.0,-128187.5,-243845.0
218.99,-349.16,1098.61,-56857.5,-164045.0,-192692.5
49.78,-357.7,1132.28,-25235.0,-168227.5,-116025.0
-122.85,-359.17,1176.08,30660.0,-111877.5,-16922.5
-270.84,-355.14,1204.38,80990.0,-6580.0,76475.0
-377.22,-350.14,1198.28,95532.5,91560.0,146702.5
-443.1,-347.7,1159.85,73150.0,143815.0,196787.5
-475.8,-347.46,1105.56,26337.5,145985.0,236600.0
-475.56,-348.31,1055.18,-25760.0,124005.0,266402.5
-437.74,-349.65,1021.87,-69982.5,115307.5,280070.0
-358.92,-351.24,1012.11,-109760.0,122045.0,271232.5
-246.2,-351.36,1026.39,-124477.5,114572.5,233677.5
-110.53,-346.36,1062.62,-120785.0,94220.0,182507.5
37.33,-335.74,1117.52,-103460.0,81742.5,116690.0
185.44,-320.13,1183.28,-66360.0,71662.5,34772.5
318.79,-301.95,1249.77,-9100.0,48667.5,-58117.5
421.14,-286.09,1304.91,77612.5,2397.5,-138530.0
485.07,-279.38,1328.21,159547.5,-37852.5,-193392.5
515.57,-281.94,1309.67,168875.0,-60952.5,-230580.0
517.77,-287.92,1263.92,135275.0,-69475.0,-253995.0
494.83,-294.02,1209.26,84945.0,-73010.0,-262920.0
443.84,-299.63,1161.07,30135.0,-89495.0,-267225.0
356.73,-303.29,1128.62,-927.5,-131162.5,-253627.5
233.02,-305.61,1113.37,-12757.5,-174352.5,-211872.5
82.96,-308.54,1114.35,-16940.0,-180792.5,-142397.5
-76.86,-312.32,1128.01,-8627.5,-125352.5,-54757.5
-226.68,-314.52,1143.87,11357.5,-32567.5,40075.0
-347.94,-314.64,1149.12,21385.0,50330.0,121992.5
-430.17,-316.1,1139.6,21927.5,101937.5,181370.0
-476.29,-320.62,1115.2,19285.0,121135.0,216965.0
-495.32,-328.42,1079.09,-2117.5,100625.0,240205.0
-489.71,-338.79,1042.61,-34772.5,64855.0,259612.5
-453.47,-349.65,1020.16,-68390.0,52010.0,272545.0
-378.69,-359.17,1019.92,-92417.5,73675.0,266647.5
-266.94,-364.54,1037.61,-107695.0,84245.0,235287.5
-125.29,-362.83,1072.99,-110722.5,65065.0,184152.5
35.62,-353.68,1128.99,-91437.5,55982.5,111825.0
197.88,-338.67,1195.84,-48212.5,52990.0,21560.0
342.33,-320.37,1260.02,12722.5,30240.0,-74007.5
454.33,-304.15,1308.45,94237.5,-7227.5,-152845.0
529.11,-297.31,1323.46,158217.5,-36137.5,-209650.0
569.98,-301.34,1298.57,167650.0,-51695.0,-248412.5
582.43,-311.47,1243.18,142187.5,-63612.5,-274575.0
564.25,-322.32,1173.52,87010.0,-78960.0,-289240.0
508.5,-335.5,1111.66,1312.5,-88795.0,-280280.0
410.04,-355.02,1078.36,-60672.5,-100940.0,-252490.0
269.38,-376.25,1080.07,-78662.5,-127015.0,-208390.0
96.87,-391.62,1111.3,-56437.5,-154700.0,-137322.5
-83.57,-397.84,1160.46,-5495.0,-129290.0,-45587.5
-245.1,-396.62,1204.14,52727.5,-38010.0,43942.5
-370.76,-392.11,1216.1,90072.5,59412.5,119577.5
-457.01,-388.69,1189.62,86835.0,123830.0,183347.5
-507.28,-388.2,1137.89,46672.5,150377.5,234272.5
-522.77,-391.01,1080.8,-13807.5,148942.5,270375.0
-501.3,-395.28,1037.0,-74165.0,133997.5,291427.5
-438.83,-399.92,1020.41,-121222.5,123742.5,290762.5
-336.48,-403.7,1033.1,-142817.5,109900.0,260102.5
-204.47,-402.6,1068.72,-134732.5,79607.5,204015.0
-56.0,-394.67,1123.25,-116602.5,58100.0,136255.0
96.38,-381.13,1192.67,-80657.5,58782.5,58782.5
238.51,-363.07,1266.48,-20685.0,56577.5,-27895.0
354.17,-345.5,1331.02,65660.0,25987.5,-105700.0
435.3,-335.13,1364.81,152477.5,-10710.0,-162435.0
483.36,-334.4,1357.37,182437.5,-36330.0,-208145.0
500.57,-339.16,1317.84,167492.5,-57120.0,-237702.5
488.12,-345.63,1259.89,119245.0,-72415.0,-250407.5
449.2,-353.56,1202.68,52535.0,-71645.0,-251702.5
379.54,-364.66,1158.76,2520.0,-83195.0,-249077.5
265.59,-376.74,1131.06,-17465.0,-138267.5,-227937.5
109.07,-385.89,1123.38,-26582.5,-193515.0,-161717.5
-61.61,-390.28,1137.89,-16660.0,-176715.0,-65432.5
-217.65,-388.2,1162.05,12495.0,-77017.5,22417.5
-341.72,-381.13,1171.93,45990.0,39252.5,95620.0
-427.73,-372.95,1154.0,55982.5,110985.0,152530.0
-480.19,-366.24,1112.64,35665.0,132860.0,194337.5
-505.69,-362.34,1060.42,-6545.0,118440.0,224087.5
-505.57,-360.63,1014.31,-57750.0,94517.5,244702.5
-478.0,-360.39,987.47,-98052.5,83807.5,254257.5
-421.02,-361.85,984.3,-127592.5,94692.5,249830.0
-340.38,-363.56,1001.62,-143552.5,97720.0,230527.5
-248.27,-363.32,1036.88,-140647.5,61827.5,216090.0
-135.91,-362.1,1093.0,-120890.0,36085.0,204645.0
10.49,-360.63,1166.32,-88707.5,69055.0,125300.0
160.31,-355.14,1242.45,-39935.0,82705.0,-10080.0
269.25,-343.55,1309.67,28612.5,22575.0,-110302.5
330.86,-333.55,1360.42,105840.0,-54687.5,-148207.5
363.32,-332.33,1383.97,188282.5,-78592.5,-168157.5
377.96,-338.18,1370.06,211015.0,-58187.5,-189980.0
376.37,-341.36,1326.14,188037.5,-39340.0,-211050.0
357.46,-338.92,1268.31,141942.5,-31657.5,-223772.5
319.4,-335.26,1211.22,79975.0,-41020.0,-236652.5
252.42,-333.43,1163.03,49332.5,-76247.5,-242742.5
145.91,-332.82,1120.33,38552.5,-131705.0,-219117.5
5.37,-332.08,1083.24,12600.0,-171342.5,-153685.0
-150.18,-330.99,1058.72,-12565.0,-167667.5,-58292.5
-295.97,-330.01,1051.64,-27090.0,-98752.5,43365.0
-406.14,-328.91,1052.01,-17955.0,10500.0,121870.0
-472.87,-328.3,1042.12,-1050.0,82005.0,164447.5
-508.13,-328.42,1014.06,-1575.0,87937.5,195790.0
-514.47,-329.4,978.93,-36400.0,61967.5,228952.5
-480.92,-330.86,958.92,-84280.0,63787.5,246435.0
-399.67,-331.35,965.39,-124162.5,89337.5,233187.5
-278.04,-326.96,999.67,-138705.0,95375.0,184817.5
-134.2,-314.76,1060.79,-123532.5,70735.0,122132.5
15.62,-296.95,1141.55,-83475.0,52027.5,49700.0
155.67,-276.21,1227.69,-19040.0,38727.5,-33232.5
269.13,-254.98,1304.42,83020.0,16485.0,-108517.5
348.68,-239.36,1347.37,178990.0,-2065.0,-161332.5
397.96,-233.51,1341.27,214130.0,-22820.0,-199780.0
422.0,-234.24,1294.05,209195.0,-48790.0,-231752.5
416.51,-237.05,1217.56,164307.5,-70805.0,-258947.5
369.42,-245.22,1131.43,63070.0,-88532.5,-265930.0
264.86,-262.79,1061.77,-34912.5,-122850.0,-244177.5
100.41,-285.24,1029.44,-94045.0,-176435.0,-165130.0
-83.2,-305.61,1046.27,-113207.5,-184380.0,-44712.5
-239.24,-319.03,1102.39,-60707.5,-103740.0,48002.5
-358.07,-327.33,1154.12,40915.0,12547.5,111195.0
-445.79,-335.26,1162.17,92067.5,91315.0,169820.0
-502.64,-344.28,1127.89,75687.5,122867.5,226607.5
-519.6,-353.31,1074.33,22102.5,133122.5,267592.5
-493.12,-359.9,1025.04,-56070.0,139125.0,281820.0
-425.17,-363.32,1002.6,-124425.0,137550.0,273192.5
-318.66,-362.34,1014.55,-152565.0,131512.5,234500.0
-188.61,-354.29,1054.45,-145827.5,96127.5,176715.0
-51.48,-340.01,1116.67,-116777.5,57050.0,116585.0
82.11,-321.84,1193.04,-65625.0,53427.5,55842.5
210.45,-300.97,1272.95,4357.5,78522.5,-14857.5
326.96,-281.7,1340.78,102392.5,71977.5,-95742.5
413.95,-272.43,1373.84,190225.0,14577.5,-164185.0
462.75,-277.18,1363.11,221480.0,-49402.5,-215267.5
474.58,-289.38,1318.09,208145.0,-87220.0,-252700.0
448.59,-302.8,1252.21,149677.5,-105087.5,-271845.0
380.27,-318.42,1187.06,62982.5,-118685.0,-277042.5
258.03,-336.23,1141.92,3010.0,-147752.5,-257635.0
84.67,-350.99,1123.99,-17220.0,-177030.0,-180267.5
-102.97,-356.24,1132.4,-11812.5,-152880.0,-68950.0
-264.98,-352.46,1153.27,19425.0,-55545.0,25077.5
-387.59,-344.77,1156.8,66972.5,53935.0,92750.0
-473.12,-336.84,1124.11,75862.5,114520.0,148172.5
-528.02,-330.13,1063.72,35647.5,127365.0,194075.0
-556.2,-325.98,996.25,-24412.5,113102.5,229215.0
-556.56,-325.25,938.91,-88007.5,97737.5,250092.5
-528.02,-327.08,904.14,-141155.0,88217.5,253662.5
-471.04,-329.64,897.19,-175647.5,87885.0,241377.5
-385.03,-331.96,918.78,-197907.5,86887.5,214865.0
-273.4,-331.84,968.68,-190837.5,78137.5,169872.5
-145.91,-326.72,1041.88,-156520.0,58712.5,115272.5
-10.49,-317.32,1131.06,-108745.0,42630.0,50627.5
120.66,-304.51,1226.47,-48475.0,36330.0,-28665.0
231.56,-291.58,1316.01,36907.5,14490.0,-103862.5
312.81,-285.11,1380.31,153702.5,-14105.0,-158147.5
364.54,-289.38,1398.73,209545.0,-29382.5,-200130.0
390.64,-300.61,1374.94,208390.0,-45115.0,-233345.0
393.82,-311.1,1325.9,183820.0,-60147.5,-258265.0
372.34,-320.98,1267.21,116655.0,-74025.0,-271302.5
321.23,-333.06,1220.37,51625.0,-94430.0,-275082.5
233.39,-349.16,1193.04,33932.5,-124232.5,-261975.0
106.99,-365.51,1179.25,33302.5,-157342.5,-218207.5
-44.53,-377.35,1175.96,33425.0,-162540.0,-145110.0
-196.91,-383.08,1180.11,37520.0,-114940.0,-59412.5
-332.45,-381.98,1182.55,47372.5,-28490.0,15417.5
-443.96,-375.27,1169.74,60252.5,37642.5,82197.5
-527.16,-366.61,1136.31,56140.0,68705.0,145005.0
-580.11,-358.92,1089.58,30625.0,88357.5,191852.5
-603.53,-352.95,1039.07,-6790.0,99137.5,224245.0
-598.04,-347.94,993.08,-50225.0,98875.0,244212.5
-563.15,-342.58,961.97,-91017.5,100380.0,250985.0
-496.66,-336.48,952.7,-121082.5,110197.5,241377.5
-400.89,-328.18,964.78,-146947.5,115080.0,209125.0
-283.28,-316.22,1000.77,-159897.5,107450.0,164465.0
-152.26,-300.61,1060.79,-142765.0,97737.5,108552.5
-18.79,-281.82,1137.65,-101657.5,77000.0,40862.5
103.09,-261.2,1222.93,-30030.0,48142.5,-29015.0
201.42,-242.54,1300.03,68950.0,18655.0,-90212.5
271.94,-232.04,1347.0,151305.0,-3080.0,-139545.0
315.0,-232.17,1351.52,190102.5,-27615.0,-180670.0
332.45,-239.61,1320.28,185447.5,-62632.5,-213850.0
324.4,-249.49,1271.0,149257.5,-88462.5,-237632.5
288.16,-260.59,1221.22,86730.0,-105035.0,-250512.5
213.74,-274.74,1182.06,52535.0,-135362.5,-247712.5
96.87,-288.9,1153.51,42507.5,-165287.5,-206097.5
-45.38,-298.53,1133.62,22995.0,-154892.5,-135870.0
-186.78,-301.95,1122.89,5355.0,-96285.0,-60987.5
-313.66,-298.17,1114.23,9852.5,-20230.0,7997.5
-421.14,-290.48,1093.24,19110.0,26565.0,77070.0
-503.86,-283.89,1056.52,5215.0,56262.5,137025.0
-561.81,-280.97,1011.38,-25865.0,70962.5,182490.0
-598.53,-281.45,966.61,-62545.0,62317.5,219362.5
-611.22,-286.33,932.81,-97352.5,50575.0,246540.0
-596.46,-294.51,918.05,-120522.5,57505.0,259875.0
-552.66,-302.32,921.47,-133437.5,77087.5,264512.5
-476.65,-309.88,940.74,-151375.0,97387.5,254310.0
-374.42,-316.1,976.98,-153230.0,91787.5,224787.5
-254.49,-318.91,1029.8,-140927.5,72852.5,196087.5
-114.31,-320.74,1097.51,-130707.5,73692.5,145442.5
36.6,-320.98,1178.76,-108412.5,86870.0,46865.0
171.17,-316.35,1264.16,-54075.0,54600.0,-66377.5
267.91,-310.25,1344.07,37152.5,-25567.5,-153317.5
324.4,-311.59,1408.12,182945.0,-78890.0,-202632.5
350.87,-326.96,1430.21,280542.5,-82967.5,-236880.0
352.58,-348.43,1400.19,296957.5,-78680.0,-272002.5
326.59,-362.95,1329.8,227587.5,-80867.5,-284585.0
271.45,-370.39,1253.18,125737.5,-115290.0,-282712.5
179.1,-375.76,1195.23,54180.0,-144637.5,-266385.0
38.8,-378.69,1152.29,18550.0,-170012.5,-210420.0
-132.74,-376.0,1130.94,-6125.0,-162067.5,-100800.0
-295.24,-368.44,1132.16,-12582.5,-82355.0,12565.0
-422.85,-360.27,1136.43,11200.0,25742.5,93940.0
-514.6,-353.8,1120.33,31342.5,86082.5,153317.5
-574.62,-350.87,1083.12,12932.5,102567.5,200235.0
-605.61,-351.97,1038.1,-21612.5,97300.0,234675.0
-606.95,-357.34,997.96,-61162.5,79677.5,257967.5
-576.82,-365.02,976.49,-99295.0,72870.0,270007.5
-511.42,-371.37,979.9,-125842.5,87430.0,270602.5
-408.33,-374.78,1002.96,-140507.5,104037.5,239610.0
-278.4,-371.61,1043.22,-143692.5,84385.0,184642.5
-133.96,-361.24,1104.59,-125265.0,45482.5,125387.5
17.08,-346.6,1181.08,-74900.0,28665.0,53690.0
161.41,-328.42,1257.82,-2590.0,30082.5,-30555.0
283.41,-310.61,1319.31,84560.0,18375.0,-110740.0
373.69,-300.61,1350.91,172112.5,-15907.5,-175332.5
432.37,-301.95,1344.81,215757.5,-52447.5,-228427.5
459.7,-308.54,1296.01,202527.5,-76510.0,-267470.0
457.74,-316.35,1224.88,120487.5,-96582.5,-285705.0
427.73,-328.18,1163.64,35822.5,-112332.5,-295627.5
358.8,-344.77,1124.72,-13877.5,-135187.5,-296222.5
241.68,-363.32,1111.05,-31045.0,-170152.5,-265282.5
86.13,-378.57,1120.2,-29102.5,-191940.0,-193252.5
-82.96,-388.57,1145.46,-8907.5,-162715.0,-97317.5
-243.27,-392.84,1173.4,17990.0,-76387.5,-1400.0
-380.4,-391.01,1188.65,36610.0,23607.5,85347.5
-481.9,-385.76,1182.67,43750.0,94115.0,159565.0
-543.14,-381.25,1154.85,36487.5,133017.5,212642.5
-569.25,-378.69,1110.44,10972.5,133472.5,244125.0
-565.47,-377.71,1062.25,-29592.5,108815.0,262045.0
-529.97,-378.08,1025.65,-73377.5,96565.0,275292.5
-452.86,-378.81,1013.58,-120732.5,119017.5,272195.0
-335.01,-377.59,1030.41,-153247.5,138617.5,231157.5
-193.98,-370.27,1072.99,-157727.5,119052.5,171307.5
-42.21,-356.0,1141.92,-145145.0,95007.5,102515.0
111.02,-337.57,1231.96,-90790.0,79012.5,13072.5
247.05,-317.2,1326.87,14315.0,57085.0,-80622.5
350.14,-301.46,1400.8,166145.0,17167.5,-152267.5
417.36,-298.53,1419.35,259997.5,-22225.0,-207690.0
450.55,-305.24,1375.06,245315.0,-56052.5,-251405.0
446.52,-313.42,1295.03,174545.0,-99942.5,-275065.0
400.53,-325.5,1211.7,74672.5,-132912.5,-276762.5
303.05,-343.55,1149.36,-3307.5,-165095.0,-256532.5
156.89,-363.8,1120.57,-48370.0,-193165.0,-185167.5
-7.56,-381.01,1130.33,-65275.0,-174930.0,-93012.5
-161.53,-390.03,1167.66,-35437.5,-105770.0,-12810.0
-292.31,-390.4,1201.46,25935.0,-23695.0,53952.5
-394.3,-386.13,1204.26,66605.0,33162.5,113662.5
-463.23,-382.35,1173.15,63612.5,70455.0,166880.0
-499.35,-379.54,1121.67,23082.5,93222.5,206797.5
-501.91,-375.52,1070.43,-33967.5,100257.5,233747.5
-468.11,-369.42,1037.37,-81707.5,100310.0,243565.0
-396.99,-359.41,1031.63,-111545.0,101482.5,231017.5
-294.75,-345.02,1052.62,-119052.5,88917.5,193427.5
-173.61,-324.89,1094.71,-97107.5,57120.0,145862.5
-40.26,-299.14,1151.68,-64575.0,45902.5,89267.5
97.6,-270.47,1214.02,-19565.0,48142.5,19110.0
227.41,-241.8,1270.75,44327.5,35192.5,-57767.5
335.01,-217.89,1306.99,113662.5,630.0,-130602.5
410.9,-204.47,1311.38,150885.0,-38185.0,-188667.5
453.72,-202.03,1284.66,148172.5,-69737.5,-230877.5
462.87,-207.89,1238.67,115150.0,-86310.0,-256760.0
438.47,-220.58,1190.72,62737.5,-72397.5,-265352.5
377.22,-239.49,1154.85,13895.0,-61145.0,-264792.5
269.25,-261.32,1135.94,-700.0,-99347.5,-243075.0
119.19,-280.72,1134.11,3430.0,-155050.0,-179147.5
-45.99,-295.97,1146.19,14997.5,-153545.0,-91420.0
-201.79,-306.46,1161.07,28787.5,-82792.5,-4742.5
-333.06,-310.86,1164.25,39392.5,542.5,73220.0
-431.27,-310.61,1148.75,39900.0,53952.5,138425.0
-496.54,-310.25,1115.08,30082.5,71662.5,190995.0
-532.9,-312.56,1068.84,2625.0,63752.5,226817.5
-543.02,-317.2,1022.6,-35595.0,52167.5,252735.0
-522.65,-323.06,990.4,-73815.0,59972.5,272807.5
-460.92,-327.33,981.12,-107187.5,97615.0,279807.5
-352.82,-328.18,995.03,-133577.5,129115.0,250600.0
-211.67,-321.35,1031.63,-129762.5,113452.5,191450.0
-54.05,-306.1,1090.68,-111405.0,89565.0,123882.5
107.36,-286.21,1166.81,-74147.5,79887.5,37100.0
252.66,-264.62,1247.45,-5740.0,55142.5,-61967.5
361.85,-247.05,1316.75,110022.5,-2922.5,-141767.5
428.83,-242.05,1343.59,190522.5,-45990.0,-196297.5
458.48,-248.39,1321.99,190627.5,-75897.5,-234482.5
456.4,-257.66,1274.17,151672.5,-86590.0,-253557.5
426.39,-266.45,1219.51,79030.0,-77997.5,-256340.0
368.93,-276.09,1179.74,22802.5,-63560.0,-252612.5
276.45,-286.94,1157.05,15820.0,-81987.5,-235112.5
146.4,-297.07,1145.09,17377.5,-127942.5,-187390.0
-4.15,-304.76,1144.12,16240.0,-143010.0,-112420.0
-153.84,-308.66,1150.09,24150.0,-98910.0,-32462.5
-289.14,-308.66,1150.46,37327.5,-22522.5,45220.0
-397.96,-305.73,1133.87,40600.0,41842.5,120487.5
-472.87,-303.05,1100.07,24675.0,82390.0,178937.5
-514.84,-302.19,1056.03,-3220.0,95515.0,217630.0
-529.24,-302.68,1011.75,-36960.0,83965.0,244107.5
-514.72,-304.88,977.46,-70735.0,71697.5,264792.5
-463.11,-307.07,961.6,-103757.5,85627.5,267470.0
-374.54,-305.98,967.95,-131722.5,111300.0,244335.0
-257.79,-299.39,995.4,-141120.0,103687.5,201670.0
-122.24,-286.7,1045.54,-131267.5,84787.5,148645.0
22.2,-268.52,1115.93,-101640.0,72100.0,80482.5
161.53,-246.44,1195.48,-47180.0,59062.5,-2222.5
280.48,-224.36,1270.02,41772.5,27545.0,-83912.5
368.2,-208.99,1317.36,141365.0,-18952.5,-146930.0
424.07,-205.2,1322.97,177642.5,-46777.5,-194635.0
451.77,-209.6,1292.71,168035.0,-66185.0,-230510.0
450.91,-218.14,1240.74,132825.0,-80535.0,-253960.0
417.61,-232.53,1185.11,64015.0,-86117.5,-262185.0
343.31,-252.66,1145.82,6492.5,-113645.0,-259332.5
222.04,-274.01,1132.4,-10377.5,-157307.5,-225207.5
68.32,-291.82,1141.68,-3867.5,-168437.5,-155820.0
-91.01,-303.54,1163.27,18760.0,-115010.0,-70612.5
-237.41,-309.03,1176.57,46865.0,-26092.5,10290.0
-359.41,-308.9,1164.86,58047.5,41212.5,90877.5
-446.52,-306.71,1128.99,43137.5,80990.0,159320.0
-498.13,-305.85,1078.48,11182.5,91752.5,206325.0
-519.48,-306.95,1026.75,-33005.0,81462.5,233782.5
-513.13,-309.39,985.88,-73360.0,66220.0,252350.0
-476.04,-312.2,965.26,-106732.5,65047.5,266332.5
-399.79,-314.39,970.88,-134767.5,93047.5,258142.5
-287.43,-312.81,1000.89,-143412.5,105647.5,215670.0
-153.23,-304.51,1051.03,-124302.5,86642.5,159390.0
-7.69,-290.6,1118.13,-96127.5,67900.0,94815.0
137.62,-273.4,1195.97,-52342.5,61757.5,13300.0
266.45,-255.22,1272.46,14647.5,42542.5,-75582.5
364.05,-241.32,1330.78,118562.5,-4252.5,-147822.5
425.41,-238.02,1349.81,183207.5,-38325.0,-198520.0
454.45,-243.88,1327.6,183452.5,-61320.0,-235935.0
454.57,-252.66,1280.02,154822.5,-72152.5,-256742.5
427.98,-263.03,1223.66,91437.5,-72537.5,-264740.0
369.05,-276.09,1177.79,33582.5,-84367.5,-268695.0
264.5,-291.34,1149.73,16730.0,-127347.5,-248097.5
116.27,-305.49,1138.14,8312.5,-166547.5,-184345.0
-50.51,-315.61,1144.12,6492.5,-151375.0,-93135.0
-208.86,-319.88,1159.98,25357.5,-68985.0,-542.5
-340.38,-318.54,1164.12,49577.5,29190.0,82687.5
-435.05,-314.76,1142.65,54285.0,93100.0,151200.0
-493.25,-311.71,1097.02,31202.5,116392.5,198730.0
-523.14,-310.37,1039.56,-13440.0,96232.5,228882.5
-530.82,-311.1,988.08,-58275.0,60235.0,249620.0
-514.72,-314.39,954.41,-91822.5,50050.0,267102.5
-468.36,-318.54,941.11,-118510.0,75687.5,272510.0
-387.72,-321.71,946.6,-145302.5,111020.0,254817.5
-277.18,-321.35,970.88,-156765.0,111650.0,210735.0
-148.84,-314.52,1016.75,-143797.5,74480.0,158392.5
-10.74,-302.8,1083.6,-115097.5,41055.0,99487.5
129.81,-288.16,1163.39,-70787.5,32392.5,22452.5
258.15,-273.04,1241.11,-8085.0,19162.5,-62510.0
360.14,-261.81,1302.96,77367.5,-11725.0,-136482.5
429.2,-261.08,1332.36,149677.5,-39830.0,-191292.5
466.28,-270.84,1323.58,154665.0,-54810.0,-231507.5
476.17,-283.77,1291.74,134172.5,-56770.0,-258317.5
462.5,-296.46,1250.99,96617.5,-47635.0,-272230.0
425.41,-310.98,1214.14,56157.5,-47827.5,-283832.5
351.36,-327.94,1186.82,47110.0,-81970.0,-287385.0
227.04,-345.99,1166.93,44957.5,-140000.0,-252787.5
64.66,-361.61,1154.85,39060.0,-162855.0,-172147.5
-109.07,-372.59,1151.8,24272.5,-110845.0,-68442.5
-267.91,-377.35,1154.49,17902.5,-8662.5,35612.5
-390.77,-375.52,1149.48,24202.5,75040.0,118282.5
-470.92,-370.27,1127.4,27510.0,107887.5,176260.0
-514.47,-364.78,1088.48,17097.5,106977.5,214410.0
-526.43,-360.39,1041.15,-15820.0,90632.5,240397.5
-506.18,-356.36,999.42,-65695.0,84490.0,257530.0
-449.2,-352.09,979.9,-116725.0,100187.5,257075.0
-358.56,-346.48,987.96,-149625.0,125037.5,230545.0
-245.59,-337.57,1021.51,-156397.5,115430.0,184975.0
-119.07,-323.54,1080.55,-135905.0,87132.5,128117.5
11.35,-304.88,1157.9,-93292.5,52937.5,56420.0
132.61,-283.41,1244.89,-19845.0,25672.5,-24605.0
228.87,-264.5,1322.48,106050.0,-822.5,-96022.5
291.34,-255.1,1355.91,185412.5,-16415.0,-146842.5
322.08,-254.98,1339.68,194442.5,-35507.5,-183785.0
325.37,-257.42,1292.59,176242.5,-56700.0,-209195.0
297.31,-259.98,1230.25,121852.5,-87307.5,-229232.5
221.19,-264.86,1172.42,54932.5,-148522.5,-227255.0
92.96,-272.18,1134.36,17745.0,-201145.0,-170747.5
-59.17,-278.77,1121.18,-2835.0,-165690.0,-74077.5
-200.81,-280.84,1125.57,-6510.0,-55230.0,16240.0
-313.78,-277.92,1123.38,15645.0,35910.0,86677.5
-393.82,-272.67,1098.98,21227.5,65782.5,138390.0
-444.81,-267.79,1057.5,5320.0,66990.0,176645.0
-472.38,-265.47,1008.09,-21385.0,52430.0,205135.0
-477.26,-265.96,962.95,-60847.5,43767.5,230737.5
-452.5,-269.13,934.4,-103827.5,62090.0,246925.0
-391.5,-273.04,930.37,-145565.0,95322.5,241622.5
-295.48,-275.6,953.55,-163432.5,110530.0,206815.0
-175.8,-273.52,1002.72,-147070.0,89985.0,153037.5
-43.31,-265.96,1073.84,-111650.0,54670.0,90440.0
91.74,-254.0,1158.02,-62475.0,27807.5,12320.0
213.87,-240.22,1243.18,7157.5,11095.0,-70595.0
310.0,-229.48,1309.67,111422.5,-8767.5,-137165.0
375.52,-227.77,1335.41,173320.0,-25200.0,-187862.5
410.41,-234.24,1319.55,177485.0,-47880.0,-226765.0
415.41,-243.02,1278.07,158375.0,-70647.5,-251300.0
392.72,-253.39,1227.93,98857.5,-81130.0,-260137.5
340.87,-265.59,1187.67,47145.0,-84332.5,-263427.5
248.76,-278.28,1159.98,33705.0,-104895.0,-249480.0
113.22,-289.87,1140.09,25235.0,-132685.0,-194337.5
-44.29,-298.41,1129.23,16712.5,-122325.0,-103652.5
-196.42,-302.44,1127.77,8102.5,-57067.5,-11795.0
-324.76,-301.58,1125.94,16747.5,27527.5,68267.5
-419.31,-296.7,1110.2,27195.0,78540.0,130672.5
-480.8,-290.6,1076.89,21612.5,102795.0,177380.0
-514.6,-285.6,1030.17,-1697.5,102690.0,212170.0
-521.18,-282.67,980.39,-46095.0,89372.5,239820.0
-494.83,-281.82,943.79,-100625.0,82425.0,254397.5
-429.93,-281.94,935.25,-149397.5,95585.0,245647.5
-331.96,-281.82,958.8,-172287.5,107030.0,206412.5
-217.53,-277.92,1010.77,-159355.0,100222.5,155557.5
-95.16,-268.64,1084.58,-126140.0,83562.5,101395.0
31.84,-255.71,1171.08,-63962.5,53935.0,32812.5
149.57,-242.05,1255.87,28315.0,21560.0,-46532.5
242.05,-232.41,1316.99,114817.5,-14682.5,-116742.5
302.07,-230.7,1340.41,164745.0,-40950.0,-167755.0
332.45,-234.48,1326.99,174457.5,-65467.5,-203997.5
338.43,-238.88,1288.81,159705.0,-79170.0,-228375.0
322.69,-244.37,1238.91,110582.5,-78382.5,-244037.5
278.89,-253.88,1190.23,56087.5,-89670.0,-252420.0
193.49,-265.84,1151.92,28910.0,-127207.5,-236792.5
66.12,-277.18,1127.77,10955.0,-156240.0,-177817.5
-80.76,-288.65,1118.5,-1015.0,-133980.0,-89827.5
-221.43,-298.41,1118.01,595.0,-65065.0,105.0
-338.43,-302.8,1116.18,4445.0,13930.0,72415.0
-425.41,-302.44,1103.12,13790.0,59255.0,127137.5
-486.17,-301.1,1074.21,11410.0,67602.5,170957.5
-524.84,-301.22,1034.68,-8855.0,50470.0,209615.0
-539.73,-303.17,997.23,-44432.5,38132.5,245630.0
-521.55,-305.85,976.73,-83842.5,56227.5,272790.0
-457.26,-308.54,982.59,-117285.0,105910.0,273560.0
-348.68,-307.93,1012.36,-121502.5,140210.0,226187.5
-217.53,-299.39,1060.79,-105892.5,125282.5,158322.5
-81.5,-283.77,1125.82,-74165.0,82005.0,92925.0
51.48,-265.11,1202.07,-16047.5,38272.5,22312.5
170.07,-246.68,1273.92,59377.5,12600.0,-51922.5
263.28,-232.53,1322.48,127207.5,-5705.0,-115920.0
327.45,-225.58,1337.85,169067.5,-21175.0,-164657.5
363.32,-225.46,1319.19,180320.0,-50400.0,-201810.0
371.86,-227.41,1276.12,163520.0,-84577.5,-229687.5
354.17,-229.36,1224.15,108657.5,-99522.5,-241605.0
307.81,-233.51,1178.03,55020.0,-103110.0,-242637.5
225.21,-239.85,1142.04,30030.0,-115657.5,-229600.0
102.24,-246.56,1115.57,12880.0,-129587.5,-184240.0
-47.58,-251.44,1099.71,5320.0,-122150.0,-104597.5
-199.59,-253.27,1093.0,-3027.5,-79100.0,-12617.5
-331.11,-251.93,1089.95,2117.5,-6737.5,71540.0
-430.42,-248.88,1076.65,12250.0,53322.5,136885.0
-498.98,-246.2,1046.64,6475.0,81410.0,187880.0
-541.68,-245.22,1004.55,-14805.0,82022.5,228865.0
-556.81,-247.05,960.38,-51012.5,77210.0,262237.5
-538.26,-251.44,925.74,-95707.5,81830.0,282205.0
-477.63,-257.3,914.51,-147700.0,94237.5,281592.5
-373.32,-262.79,934.89,-169382.5,106855.0,240432.5
-242.17,-263.52,984.42,-159512.5,95042.5,174317.5
-99.55,-259.13,1056.76,-128870.0,71890.0,107362.5
46.97,-251.69,1143.02,-77612.5,35962.5,31395.0
184.22,-243.76,1234.27,-1750.0,-7297.5,-53795.0
294.75,-239.97,1312.6,98822.5,-36942.5,-134977.5
367.95,-245.71,1353.71,168070.0,-51222.5,-194775.0
406.02,-258.52,1350.17,186322.5,-69387.5,-237230.0
415.65,-272.55,1315.89,165305.0,-91070.0,-266245.0
400.77,-285.48,1270.51,126192.5,-100135.0,-289275.0
357.09,-299.02,1227.44,75075.0,-99890.0,-303047.5
270.84,-313.42,1188.52,50977.5,-122167.5,-298060.0
130.54,-322.69,1155.83,35472.5,-164167.5,-238490.0
-41.48,-325.74,1137.04,10447.5,-162050.0,-123532.5
-202.76,-326.96,1133.99,52.5,-79345.0,-9047.5
-331.6,-325.86,1131.79,9380.0,33967.5,77647.5
-427.12,-321.23,1115.08,7315.0,93205.0,141225.0
-491.54,-316.1,1085.43,-420.0,104387.5,191520.0
-527.77,-312.81,1047.13,-17132.5,90667.5,229057.5
-534.48,-312.56,1009.55,-52832.5,79187.5,257302.5
-505.32,-313.3,988.08,-93082.5,87885.0,272265.0
-434.32,-312.56,994.06,-120487.5,116637.5,259297.5
-329.89,-308.66,1023.34,-131792.5,131512.5,213727.5
-208.99,-299.27,1070.67,-113610.0,107240.0,156292.5
-79.79,-284.75,1132.89,-82022.5,73570.0,95620.0
49.53,-268.16,1203.77,-33582.5,36820.0,25707.5
166.77,-251.2,1274.05,38920.0,15225.0,-48527.5
259.01,-237.29,1323.94,113452.5,-5162.5,-114975.0
319.88,-229.85,1338.46,159390.0,-29540.0,-164500.0
350.87,-228.14,1315.77,169452.5,-62772.5,-201127.5
354.29,-227.53,1267.46,147245.0,-96355.0,-226590.0
330.62,-225.7,1210.24,94220.0,-106785.0,-234097.5
280.11,-224.72,1159.73,32970.0,-101867.5,-225960.0
199.71,-226.68,1122.52,3552.5,-99575.0,-207025.0
83.94,-229.36,1094.1,-13982.5,-114695.0,-163887.5
-58.07,-231.8,1076.89,-30065.0,-131950.0,-86135.0
-201.42,-234.48,1077.26,-30922.5,-98962.5,5985.0
-324.28,-234.97,1084.34,-8960.0,-12127.5,90090.0
-417.24,-234.12,1076.65,1767.5,64662.5,153772.5
-479.83,-234.0,1049.69,-6492.5,97370.0,202737.5
-515.33,-235.83,1010.89,-29312.5,93940.0,241080.0
-522.4,-240.58,971.49,-64225.0,75845.0,269482.5
-494.83,-247.78,945.26,-106487.5,68162.5,287245.0
-422.0,-255.83,947.45,-145215.0,83615.0,277462.5
-306.71,-261.81,981.73,-152215.0,106330.0,221725.0
-175.19,-261.57,1039.2,-128275.0,90265.0,150552.5
-43.19,-255.96,1111.18,-88165.0,41020.0,92155.0
90.65,-249.98,1191.82,-40530.0,-122.5,26425.0
218.99,-245.83,1274.17,33792.5,-10255.0,-54985.0
323.79,-245.22,1337.36,115745.0,-15645.0,-132352.5
394.43,-250.83,1363.59,165305.0,-31727.5,-190435.0
432.86,-261.57,1351.27,179252.5,-61617.5,-233397.5
441.76,-272.3,1311.01,153720.0,-94675.0,-266000.0
418.58,-281.33,1263.43,111737.5,-117407.5,-284847.5
354.65,-292.07,1222.68,68425.0,-127470.0,-290010.0
235.58,-303.05,1190.96,49525.0,-153877.5,-259927.5
72.47,-309.27,1169.0,34387.5,-162015.0,-169277.5
-95.04,-311.34,1158.63,20562.5,-102602.5,-57400.0
-237.41,-309.88,1151.8,22137.5,1435.0,39042.5
-345.5,-304.27,1132.77,27370.0,72345.0,113557.5
-419.31,-295.73,1098.98,14665.0,102830.0,170240.0
-459.94,-287.55,1055.3,-192.5,101937.5,212607.5
-466.28,-282.06,1008.21,-38920.0,93870.0,238647.5
-436.27,-278.89,974.78,-88602.5,86905.0,249585.0
-364.29,-275.23,972.1,-121625.0,90317.5,235357.5
-252.3,-268.52,1001.25,-122552.5,90545.0,182367.5
-121.02,-257.18,1052.37,-105577.5,78330.0,111405.0
11.83,-240.95,1118.62,-61792.5,58607.5,46707.5
141.28,-221.92,1190.23,-3377.5,39095.0,-18830.0
258.64,-203.98,1250.99,64400.0,17220.0,-91735.0
350.87,-191.42,1283.07,118002.5,-14297.5,-158987.5
411.63,-187.64,1280.02,134540.0,-54652.5,-211172.5
442.01,-192.39,1251.11,114957.5,-82967.5,-250775.0
444.08,-201.42,1210.48,82880.0,-83825.0,-278075.0
418.22,-213.13,1164.49,38307.5,-66762.5,-293860.0
348.8,-227.04,1119.84,-2467.5,-86887.5,-292775.0
224.24,-238.63,1094.34,-32060.0,-144900.0,-235812.5
71.49,-246.81,1099.59,-35700.0,-156170.0,-144095.0
-80.52,-253.52,1121.91,-2432.5,-88480.0,-56227.5
-221.19,-257.79,1135.09,26372.5,-2940.0,30380.0
-338.92,-259.37,1128.01,33652.5,43750.0,110775.0
-426.51,-260.35,1105.32,20510.0,60392.5,174457.5
-485.56,-263.76,1074.58,4567.5,55002.5,222057.5
-518.74,-270.23,1042.86,-15767.5,42927.5,258860.0
-524.84,-279.75,1017.97,-39305.0,43540.0,290185.0
-493.86,-291.58,1005.28,-63892.5,67200.0,311692.5
-414.56,-302.8,1008.57,-87202.5,106085.0,295312.5
-296.09,-307.56,1027.24,-92785.0,115412.5,236022.5
-158.84,-303.05,1059.2,-84700.0,82372.5,167300.0
-11.71,-292.07,1105.69,-68757.5,45325.0,100047.5
139.45,-277.18,1164.25,-39322.5,34247.5,22295.0
279.38,-259.25,1223.17,8207.5,30467.5,-66517.5
392.84,-241.56,1268.43,77315.0,10972.5,-143290.0
474.09,-231.19,1282.95,136780.0,-17062.5,-205677.5
522.89,-230.34,1259.65,142170.0,-46042.5,-256392.5
539.0,-235.22,1210.0,119560.0,-72852.5,-294175.0
518.13,-244.85,1148.02,65712.5,-90440.0,-308612.5
453.35,-260.35,1092.27,-13335.0,-103250.0,-299705.0
335.26,-280.48,1062.13,-64330.0,-129867.5,-262517.5
167.26,-301.46,1064.21,-75897.5,-169085.0,-177415.0
-17.45,-318.18,1099.83,-61075.0,-163800.0,-64015.0
-182.88,-327.94,1155.1,-8995.0,-82600.0,33425.0
-316.35,-332.08,1194.62,55300.0,16502.5,105017.5
-420.41,-334.77,1195.6,87990.0,72677.5,169330.0
-495.32,-340.14,1160.46,81305.0,96267.5,235200.0
-536.92,-350.38,1103.98,40110.0,100292.5,288925.0
-538.75,-364.78,1047.25,-28087.5,109917.5,326042.5
-493.86,-382.35,1011.5,-93520.0,113697.5,339027.5
-396.62,-399.55,1008.7,-131810.0,119105.0,311552.5
-259.98,-410.65,1037.49,-136097.5,105315.0,240817.5
-106.75,-410.9,1090.92,-115675.0,67655.0,161892.5
50.26,-402.6,1161.2,-77437.5,34877.5,86170.0
202.76,-389.18,1239.52,-20160.0,27230.0,3745.0
337.57,-373.2,1312.48,65957.5,25112.5,-80955.0
442.62,-361.0,1357.62,156520.0,8715.0,-153037.5
514.11,-357.46,1360.06,195685.0,-18095.0,-213115.0
553.76,-359.9,1325.77,192990.0,-51047.5,-255255.0
564.13,-364.05,1269.53,154402.5,-71190.0,-284445.0
543.27,-368.93,1206.34,89582.5,-78715.0,-295575.0
491.9,-375.03,1153.51,24430.0,-65012.5,-285880.0
414.07,-379.18,1120.57,-8417.5,-41230.0,-261870.0
311.22,-380.52,1103.12,-9957.5,-28455.0,-230510.0
176.29,-382.35,1089.22,3990.0,-68512.5,-191257.5
9.15,-384.42,1078.36,8067.5,-137410.0,-112892.5
-164.21,-386.5,1079.94,2205.0,-141295.0,-9135.0
-312.69,-387.23,1093.24,3727.5,-51572.5,81007.5
-421.63,-385.15,1100.56,20982.5,64767.5,145442.5
-495.69,-382.1,1084.34,31290.0,123287.5,193567.5
-544.49,-381.01,1044.69,13422.5,117092.5,235900.0
-568.03,-384.18,994.18,-26460.0,81252.5,270900.0
-560.22,-391.5,950.87,-77665.0,57277.5,292932.5
-516.91,-400.89,931.35,-123060.0,57190.0,303730.0
-428.34,-410.77,944.65,-152232.5,82180.0,290622.5
-296.34,-416.51,986.98,-148207.5,99575.0,232540.0
-141.4,-412.48,1048.35,-127330.0,83982.5,160790.0
20.62,-400.65,1123.01,-99172.5,52972.5,83282.5
176.9,-383.08,1207.8,-51415.0,28420.0,-4620.0
311.71,-363.56,1292.1,22347.5,8785.0,-90790.0
413.34,-348.43,1354.08,129622.5,-10272.5,-159460.0
477.75,-343.8,1370.91,185255.0,-27055.0,-211452.5
508.37,-350.87,1346.39,176697.5,-45115.0,-249550.0
509.59,-365.27,1300.28,149922.5,-55860.0,-274172.5
483.24,-381.98,1247.08,92470.0,-53707.5,-282117.5
427.49,-398.82,1201.09,32427.5,-50050.0,-286090.0
328.91,-414.31,1169.61,7612.5,-82565.0,-278022.5
176.9,-424.93,1153.75,3237.5,-156187.5,-225995.0
-5.0,-427.98,1156.68,10920.0,-192255.0,-122552.5
-177.51,-423.95,1173.15,34265.0,-125072.5,-20160.0
-321.47,-415.53,1179.86,68092.5,-6422.5,65187.5
-430.66,-405.65,1156.07,80167.5,74340.0,139912.5
-507.28,-397.84,1104.34,52692.5,101570.0,201932.5
-556.32,-393.57,1041.76,3080.0,89442.5,252157.5
-577.3,-393.82,986.13,-49507.5,74637.5,291077.5
-561.08,-398.82,949.4,-97580.0,76895.0,314755.0
-494.59,-405.77,943.55,-134417.5,101762.5,305777.5
-380.64,-409.31,968.92,-137235.0,133332.5,247205.0
-243.63,-403.33,1011.87,-115237.5,111720.0,173005.0
-97.72,-388.57,1068.84,-97107.5,61127.5,110880.0
55.51,-368.93,1141.68,-69545.0,31237.5,38482.5
202.03,-345.02,1222.07,-17727.5,26057.5,-45902.5
325.25,-320.74,1292.22,56962.5,19862.5,-122517.5
417.12,-303.9,1331.75,140997.5,-4410.0,-182875.0
474.09,-299.88,1328.82,175892.5,-40512.5,-232837.5
496.66,-306.95,1291.0,159582.5,-73447.5,-270602.5
486.41,-320.98,1235.74,110372.5,-92207.5,-293527.5
440.91,-339.4,1181.69,43767.5,-105770.0,-307580.0
344.28,-359.05,1145.34,-4095.0,-143447.5,-299355.0
190.93,-376.0,1134.84,-21210.0,-188947.5,-230265.0
10.25,-386.01,1150.46,-15032.5,-169435.0,-123165.0
-159.7,-387.35,1180.11,10272.5,-73045.0,-22452.5
-299.14,-381.49,1196.94,50785.0,31290.0,56927.5
-405.28,-371.25,1181.94,71732.5,75792.5,124232.5
-482.02,-361.0,1137.89,59797.5,84017.5,185815.0
-531.31,-354.65,1077.14,22172.5,75180.0,239785.0
-550.71,-353.92,1015.89,-37730.0,80675.0,283500.0
-531.92,-358.07,971.49,-102830.0,101325.0,307982.5
-463.84,-365.15,958.19,-150570.0,133612.5,297587.5
-352.7,-370.51,976.98,-163625.0,154402.5,237947.5
-226.19,-367.71,1020.16,-152057.5,127050.0,166932.5
-98.7,-356.12,1082.87,-131512.5,68565.0,108972.5
31.72,-339.65,1161.93,-93747.5,32375.0,45797.5
156.89,-320.98,1247.82,-19390.0,22400.0,-30625.0
261.57,-303.29,1319.43,89057.5,16187.5,-97142.5
337.94,-292.8,1349.81,157727.5,5512.5,-150762.5
385.03,-292.07,1337.0,166005.0,-25165.0,-196682.5
401.75,-298.9,1296.37,149800.0,-69037.5,-234885.0
381.98,-312.08,1242.94,99470.0,-115255.0,-259665.0
319.52,-328.18,1198.65,34230.0,-154367.5,-262675.0
209.47,-343.55,1178.89,-1225.0,-182577.5,-231700.0
61.0,-353.8,1185.47,2625.0,-167335.0,-155120.0
-94.18,-355.26,1204.38,32865.0,-86117.5,-56770.0
-227.29,-348.55,1210.48,57925.0,17727.5,25690.0
-329.16,-336.72,1187.67,66605.0,69265.0,93292.5
-399.92,-323.06,1138.99,47915.0,75985.0,151847.5
-441.27,-311.47,1078.97,2205.0,74095.0,199972.5
-452.99,-303.54,1026.02,-56857.5,76685.0,235060.0
-436.15,-299.51,995.28,-101797.5,87745.0,252822.5
-390.4,-298.41,991.13,-125912.5,105315.0,249935.0
-316.35,-297.68,1009.43,-124547.5,115622.5,218295.0
-221.19,-293.04,1043.59,-107747.5,95480.0,166232.5
-116.39,-284.38,1088.97,-81515.0,41370.0,107065.0
-7.56,-273.28,1143.87,-45710.0,3360.0,50260.0
102.11,-259.49,1202.43,-472.5,-2625.0,-14962.5
201.91,-243.51,1254.04,55947.5,-1225.0,-79327.5
282.8,-228.63,1287.1,107992.5,4637.5,-133420.0
343.19,-218.62,1292.59,143237.5,6947.5,-178552.5
383.57,-213.99,1262.94,158200.0,-21105.0,-217437.5
402.11,-213.99,1196.09,132947.5,-92907.5,-251720.0
389.55,-219.48,1113.62,55195.0,-173075.0,-277042.5
329.89,-233.02,1052.86,-42892.5,-209790.0,-275887.5
213.26,-251.81,1037.0,-91437.5,-198537.5,-226992.5
57.58,-268.64,1064.94,-78417.5,-133647.5,-130042.5
-97.97,-279.01,1113.62,-28717.5,-26250.0,-29977.5
-228.38,-282.43,1148.75,26180.0,58450.0,49945.0
-327.45,-279.87,1149.97,50452.5,81462.5,106662.5
-398.21,-274.01,1122.64,41475.0,74445.0,155855.0
-442.13,-268.16,1081.9,10622.5,67235.0,206202.5
-453.35,-266.33,1043.71,-38132.5,86782.5,246085.0
-424.68,-268.89,1020.16,-89075.0,125720.0,260102.5
-353.92,-272.91,1017.72,-120610.0,160422.5,230422.5
-253.03,-273.4,1032.97,-124460.0,149922.5,166425.0
-143.47,-269.5,1062.38,-120417.5,67410.0,99645.0
-34.65,-264.25,1111.42,-101657.5,-23555.0,42245.0
70.88,-259.13,1177.79,-54915.0,-48562.5,-16852.5
164.09,-253.15,1244.16,16677.5,-29207.5,-74987.5
237.9,-246.68,1290.03,79135.0,-8557.5,-123602.5
290.12,-243.63,1306.13,112245.0,-14700.0,-168595.0
317.57,-247.17,1294.79,122552.5,-56385.0,-207042.5
315.74,-256.93,1264.41,102235.0,-104702.5,-236880.0
280.48,-268.64,1230.25,70910.0,-137830.0,-249305.0
207.64,-278.89,1201.33,42980.0,-157062.5,-231840.0
96.75,-284.63,1183.16,12845.0,-155312.5,-173477.5
-33.43,-284.38,1183.28,4270.0,-100817.5,-81445.0
-155.06,-279.38,1188.77,29050.0,-2205.0,7350.0
-254.0,-271.21,1173.64,44870.0,59832.5,78172.5
-329.4,-261.2,1135.21,30677.5,69877.5,133227.5
-383.81,-252.91,1088.48,4305.0,61022.5,181370.0
-418.22,-249.61,1044.93,-28000.0,57295.0,224665.0
-427.37,-252.05,1014.31,-60287.5,70350.0,259157.5
-405.28,-257.66,1001.74,-86117.5,105070.0,272405.0
-347.94,-263.03,1006.26,-95777.5,134102.5,252420.0
-259.01,-264.74,1021.51,-89127.5,123112.5,197715.0
-151.04,-261.81,1045.54,-80395.0,61040.0,127452.5
-37.33,-255.59,1083.12,-68145.0,-8172.5,60182.5
74.66,-247.05,1135.09,-43960.0,-27352.5,-227.5
181.66,-236.92,1193.28,3500.0,3500.0,-59342.5
277.92,-226.19,1240.5,71085.0,39655.0,-117145.0
358.8,-218.14,1261.48,115955.0,49035.0,-172725.0
419.68,-216.92,1253.06,136867.5,28927.5,-226922.5
455.43,-225.58,1217.32,133612.5,-14805.0,-278600.0
457.62,-245.22,1161.93,103845.0,-79695.0,-329472.5
405.65,-274.26,1105.32,33897.5,-167772.5,-355057.5
279.38,-305.49,1076.89,-41370.0,-265510.0,-305077.5
104.19,-331.11,1101.42,-66675.0,-259752.5,-173250.0
-66.0,-350.14,1162.9,-9782.5,-101780.0,-43085.0
-202.76,-362.1,1208.78,53777.5,79555.0,51012.5
-304.76,-366.37,1212.19,74480.0,145267.5,113050.0
-382.59,-364.29,1183.64,67077.5,127050.0,163380.0
-445.91,-361.85,1136.92,49175.0,70542.5,217542.5
-493.12,-365.02,1083.73,13247.5,30065.0,277147.5
-508.5,-376.25,1039.44,-44590.0,51870.0,329717.5
-480.44,-392.11,1017.24,-96390.0,119227.5,346990.0
-408.46,-406.75,1020.53,-121065.0,175035.0,321212.5
-300.36,-414.31,1043.59,-119490.0,189122.5,252122.5
-176.29,-412.24,1077.14,-104107.5,125002.5,168000.0
-49.29,-403.58,1119.72,-86327.5,14787.5,91420.0
74.79,-393.33,1175.96,-61512.5,-49315.0,19442.5
187.39,-381.74,1241.96,-15732.5,-37170.0,-46865.0
283.77,-368.93,1301.98,60235.0,5565.0,-102637.5
363.93,-359.29,1336.14,142292.5,26372.5,-155890.0
426.27,-356.0,1329.07,170450.0,16362.5,-212345.0
466.53,-357.95,1290.64,159092.5,-23222.5,-267802.5
478.48,-366.73,1237.69,123445.0,-78207.5,-307947.5
458.23,-383.32,1182.18,65222.5,-132247.5,-335020.0
394.91,-403.7,1141.55,6720.0,-184765.0,-344190.0
276.21,-421.63,1128.26,-29855.0,-239400.0,-308560.0
114.92,-433.47,1146.19,-20912.5,-237650.0,-213955.0
-54.78,-439.69,1179.25,11480.0,-129465.0,-98700.0
-207.64,-442.13,1201.21,39952.5,19775.0,4270.0
-332.57,-439.32,1195.6,49945.0,101010.0,87220.0
-429.32,-431.76,1168.76,31255.0,113365.0,152827.5
-500.2,-423.71,1135.45,14420.0,106015.0,208617.5
-545.83,-419.19,1098.73,3762.5,97107.5,252665.0
-563.76,-420.9,1059.94,-22960.0,98840.0,286965.0
-545.71,-428.95,1029.07,-73115.0,126787.5,310345.0
-480.31,-440.91,1020.77,-125650.0,159145.0,306670.0
-366.37,-451.16,1043.34,-153755.0,164675.0,255972.5
-223.63,-453.11,1094.34,-150360.0,103600.0,173740.0
-75.15,-445.67,1170.96,-123900.0,25007.5,90160.0
66.0,-432.73,1267.58,-55300.0,-4760.0,12337.5
190.81,-416.75,1362.62,60182.5,15540.0,-60567.5
293.17,-402.23,1424.59,173337.5,29575.0,-125125.0
369.42,-395.28,1429.11,218400.0,7595.0,-184275.0
418.7,-394.43,1386.53,211645.0,-50487.5,-235882.5
438.22,-397.84,1320.28,162067.5,-109602.5,-274872.5
423.83,-406.75,1250.62,77175.0,-152880.0,-296572.5
371.49,-420.41,1201.09,980.0,-172585.0,-302260.0
274.38,-434.93,1181.33,-30607.5,-187617.5,-278915.0
140.06,-444.45,1189.74,-23730.0,-176662.5,-213570.0
-3.29,-448.59,1211.46,9047.5,-111527.5,-129762.5
-135.54,-449.69,1223.42,38325.0,-29295.0,-58467.5
-256.2,-445.06,1214.02,42437.5,11672.5,2397.5
-364.29,-433.34,1190.23,33547.5,11252.5,68337.5
-452.86,-419.68,1161.56,30065.0,21192.5,129290.0
-522.16,-409.43,1126.55,23537.5,49350.0,184257.5
-572.91,-405.04,1084.58,-1522.5,70140.0,240135.0
-598.04,-407.36,1045.05,-39217.5,96005.0,290780.0
-585.6,-416.63,1017.48,-82180.0,140507.5,327547.5
-526.67,-429.2,1009.67,-127015.0,185762.5,331800.0
-420.17,-439.69,1025.04,-157937.5,179392.5,295767.5
-278.89,-442.74,1062.25,-157902.5,91280.0,216422.5
-125.17,-437.49,1123.62,-136797.5,2642.5,130165.0
26.11,-426.51,1206.58,-89110.0,-22067.5,44887.5
164.82,-410.9,1297.1,-3570.0,-4742.5,-36102.5
282.19,-394.79,1369.94,109147.5,4865.0,-107135.0
371.61,-384.67,1397.39,182052.5,-8855.0,-171115.0
432.37,-381.13,1379.09,185622.5,-41632.5,-223335.0
466.28,-381.25,1332.85,166722.5,-78522.5,-263882.5
472.51,-385.03,1271.48,113190.0,-104125.0,-288277.5
451.89,-394.3,1212.19,40337.5,-105630.0,-301507.5
397.23,-409.07,1168.27,-9065.0,-117862.5,-314125.0
288.9,-426.76,1143.38,-29942.5,-184327.5,-293335.0
132.25,-442.13,1145.82,-40530.0,-236792.5,-210315.0
-36.84,-452.74,1178.15,-21612.5,-179672.5,-102847.5
-190.93,-457.62,1216.46,25165.0,-42087.5,-5407.5
-318.54,-454.94,1231.1,54810.0,72047.5,70280.0
-418.09,-445.79,1216.1,58712.5,109060.0,133157.5
-492.39,-435.05,1180.84,50207.5,99732.5,192027.5
-543.39,-427.73,1132.77,30975.0,76947.5,245665.0
-568.03,-426.51,1081.65,-7577.5,69002.5,290045.0
-559.74,-432.12,1038.71,-56945.0,91175.0,318902.5
-513.38,-442.62,1014.06,-106190.0,128642.5,329455.0
-424.68,-455.06,1015.53,-142257.5,161560.0,307440.0
-298.05,-463.84,1042.73,-154630.0,153422.5,246347.5
-150.3,-464.58,1090.92,-146177.5,89775.0,165672.5
1.95,-458.48,1159.0,-120995.0,17202.5,79782.5
146.89,-447.01,1243.67,-70577.5,-8855.0,-6125.0
272.43,-432.61,1329.8,16012.5,7140.0,-86817.5
370.15,-420.05,1394.83,142187.5,23887.5,-149100.0
440.66,-413.58,1408.37,219345.0,24727.5,-196630.0
490.93,-412.6,1372.38,209825.0,5565.0,-237072.5
523.75,-414.92,1311.01,188037.5,-28630.0,-278932.5
529.24,-422.0,1232.2,127645.0,-70962.5,-313180.0
495.93,-437.74,1157.54,28752.5,-123690.0,-325972.5
410.65,-463.84,1116.06,-52990.0,-171132.5,-325307.5
259.49,-492.03,1121.3,-78890.0,-216125.0,-283307.5
61.98,-513.62,1165.34,-37625.0,-219380.0,-172567.5
-133.47,-526.55,1223.78,17097.5,-128625.0,-46777.5
-294.51,-529.6,1269.04,61425.0,20825.0,42945.0
-418.09,-522.89,1278.93,97492.5,110775.0,112000.0
-508.98,-511.42,1248.43,104457.5,123865.0,179567.5
-570.11,-501.91,1189.87,73955.0,106540.0,237177.5
-602.44,-497.52,1120.45,22050.0,83807.5,284655.0
-603.17,-499.47,1057.25,-44135.0,78890.0,316610.0
-570.35,-506.42,1016.75,-105577.5,92977.5,334180.0
-495.08,-517.04,1010.28,-144270.0,131285.0,329000.0
-376.98,-527.04,1032.36,-154472.5,159145.0,277795.0
-235.95,-529.97,1072.99,-146685.0,134750.0,205450.0
-86.01,-525.21,1128.87,-131775.0,83265.0,133507.5
66.86,-514.84,1198.89,-99925.0,35962.5,48230.0
207.77,-500.44,1276.12,-38902.5,-192.5,-46112.5
320.62,-485.8,1346.39,51432.5,-13492.5,-121852.5
402.97,-478.24,1385.68,158585.0,-10395.0,-175787.5
461.16,-481.17,1376.4,189070.0,-9800.0,-223352.5
498.25,-490.2,1329.31,170730.0,-28752.5,-268590.0
516.3,-499.1,1263.43,119367.5,-53095.0,-307177.5
512.16,-509.11,1192.18,50767.5,-79100.0,-339605.0
472.14,-526.31,1132.28,-22715.0,-118020.0,-361427.5
371.98,-549.98,1103.49,-77980.0,-172917.5,-355967.5
200.69,-573.16,1115.32,-84577.5,-231122.5,-282292.5
-8.91,-591.33,1159.98,-44940.0,-234797.5,-148925.0
-208.5,-601.09,1221.1,892.5,-133210.0,-27825.0
-373.81,-600.24,1270.75,57592.5,4970.0,63857.5
-498.49,-591.33,1285.03,95637.5,79520.0,140560.0
-586.09,-580.6,1265.51,100362.5,107607.5,209335.0
-639.65,-574.13,1224.15,83597.5,116270.0,273000.0
-651.48,-574.01,1172.18,40040.0,134960.0,316802.5
-621.1,-577.43,1121.3,-25917.5,148767.5,332290.0
-556.08,-581.21,1087.63,-86380.0,131145.0,331730.0
-454.69,-584.38,1083.6,-124880.0,118720.0,300562.5
-324.76,-582.67,1107.52,-131810.0,87832.5,234885.0
-182.15,-573.77,1150.34,-105192.5,35157.5,166477.5
-35.38,-560.83,1204.63,-68267.5,5635.0,92575.0
106.51,-544.61,1263.31,-18410.0,5862.5,19845.0
235.83,-525.82,1314.92,40810.0,22120.0,-50032.5
346.6,-508.62,1344.32,99225.0,21175.0,-117232.5
433.95,-497.15,1343.1,130200.0,-6492.5,-178762.5
496.05,-493.0,1314.18,131250.0,-45482.5,-230947.5
532.9,-493.86,1265.63,103075.0,-73500.0,-274470.0
538.75,-498.98,1208.78,52850.0,-93572.5,-303817.5
508.5,-509.72,1159.85,-6877.5,-97440.0,-308315.0
444.32,-525.58,1135.09,-53795.0,-90440.0,-308560.0
335.13,-543.63,1134.72,-52535.0,-127242.5,-302977.5
171.29,-560.71,1148.02,-17185.0,-217017.5,-241010.0
-20.62,-572.3,1174.74,-1750.0,-237352.5,-126437.5
-200.57,-574.86,1214.63,12232.5,-131442.5,-20107.5
-348.92,-569.01,1248.79,45395.0,16117.5,60130.0
-464.21,-557.66,1255.62,77437.5,99697.5,130025.0
-548.27,-546.8,1232.2,82845.0,120487.5,192780.0
-602.19,-541.19,1188.04,64207.5,120417.5,245297.5
-625.98,-541.56,1134.6,27107.5,111107.5,285267.5
-615.49,-547.9,1084.09,-24955.0,110267.5,315087.5
-560.71,-558.39,1051.64,-84805.0,116952.5,327442.5
-456.77,-569.62,1047.61,-134680.0,124425.0,301367.5
-319.03,-575.84,1071.89,-153685.0,92067.5,244177.5
-163.24,-574.13,1123.99,-148680.0,56175.0,179935.0
0.0,-567.3,1198.53,-108377.5,43662.5,102497.5
156.89,-556.08,1280.76,-31885.0,51712.5,16240.0
294.39,-542.17,1352.86,61180.0,50207.5,-67935.0
401.38,-531.68,1398.61,151812.5,23590.0,-136937.5
475.92,-528.99,1402.39,202247.5,2467.5,-194320.0
520.21,-530.46,1366.64,190032.5,-20037.5,-237615.0
533.99,-532.04,1308.21,142887.5,-42630.0,-266857.5
515.57,-534.6,1240.98,72030.0,-53830.0,-279720.0
465.55,-538.75,1184.62,-875.0,-57400.0,-286947.5
371.86,-543.39,1148.75,-38360.0,-96967.5,-292617.5
222.28,-545.34,1134.36,-37415.0,-190417.5,-250547.5
38.92,-542.29,1145.58,-19635.0,-241272.5,-158830.0
-147.01,-535.09,1177.3,15522.5,-177695.0,-62265.0
-317.93,-523.99,1206.46,58835.0,-45657.5,32165.0
-455.79,-510.45,1214.14,81550.0,82495.0,118195.0
-550.46,-498.49,1195.36,84192.5,163975.0,186497.5
-601.95,-489.95,1153.39,65695.0,196822.5,238875.0
-612.2,-484.46,1097.51,22137.5,187530.0,269255.0
-585.23,-482.75,1040.9,-42507.5,148277.5,280700.0
-521.43,-485.07,1002.72,-113312.5,98910.0,273595.0
-425.29,-489.1,997.59,-156800.0,57592.5,239190.0
-311.71,-492.76,1025.17,-166320.0,9292.5,191677.5
-189.83,-493.86,1081.16,-142747.5,-9205.0,145425.0
-58.93,-491.9,1154.36,-88830.0,16100.0,92470.0
76.25,-486.17,1226.95,-25602.5,52167.5,23415.0
204.23,-476.78,1284.54,38220.0,64347.5,-55930.0
311.1,-467.02,1318.82,92662.5,38745.0,-128607.5
388.69,-460.92,1326.26,136937.5,-6860.0,-186200.0
435.91,-457.5,1304.91,146702.5,-46777.5,-229915.0
456.16,-454.94,1261.36,114940.0,-65817.5,-258440.0
450.3,-455.67,1208.04,62807.5,-65362.5,-281067.5
414.8,-461.4,1158.27,9082.5,-70507.5,-301962.5
335.5,-471.9,1121.42,-28350.0,-128607.5,-317695.0
197.4,-485.56,1103.73,-48475.0,-245385.0,-280857.5
19.76,-497.52,1118.98,-60585.0,-308945.0,-179567.5
-158.84,-502.27,1170.71,-35577.5,-229407.5,-72135.0
-315.86,-497.64,1233.91,28805.0,-58590.0,16677.5
-442.86,-486.66,1272.95,90562.5,87272.5,91682.5
-535.82,-475.8,1272.95,120400.0,154752.5,162085.0
-593.53,-469.82,1240.25,114730.0,178080.0,220307.5
-619.27,-468.48,1185.6,73692.5,171692.5,265947.5
-617.32,-471.9,1123.99,9450.0,140157.5,300912.5
-585.48,-481.66,1073.84,-63490.0,116182.5,322962.5
-516.79,-496.42,1051.64,-121082.5,122692.5,316435.0
-413.09,-510.33,1056.76,-148277.5,114975.0,275397.5
-286.33,-519.23,1084.46,-151620.0,54722.5,213097.5
-149.08,-523.38,1134.23,-122675.0,-4025.0,146650.0
-7.08,-524.11,1198.16,-76317.5,-14280.0,75880.0
130.78,-520.57,1264.16,-16012.5,13317.5,-2905.0
252.54,-511.79,1318.45,53060.0,32532.5,-73115.0
354.53,-502.03,1348.1,114432.5,35332.5,-137427.5
433.59,-494.83,1347.49,149502.5,18917.5,-194075.0
487.02,-490.56,1318.33,153685.0,-8977.5,-242270.0
513.62,-489.46,1267.46,132230.0,-35227.5,-282310.0
507.28,-493.73,1203.41,88305.0,-56770.0,-311710.0
462.87,-504.84,1141.31,22750.0,-86940.0,-329787.5
368.56,-521.92,1097.51,-38412.5,-152670.0,-334512.5
217.16,-540.22,1082.87,-76160.0,-244107.5,-285372.5
30.87,-551.93,1107.03,-79660.0,-273560.0,-177432.5
-153.72,-552.05,1164.25,-36907.5,-179462.5,-63490.0
-313.42,-540.95,1223.42,35017.5,-16625.0,25847.5
-439.81,-523.01,1252.21,88725.0,108570.0,99050.0
-531.92,-505.08,1243.3,106627.5,163572.5,163082.5
-590.97,-491.66,1203.9,95707.5,175525.0,219047.5
-619.76,-483.97,1143.99,54880.0,160317.5,258090.0
-619.03,-482.63,1078.24,-11567.5,133140.0,283657.5
-591.82,-488.0,1024.56,-85610.0,107765.0,295277.5
-538.51,-498.98,998.2,-140122.5,95130.0,296800.0
-457.26,-513.38,1001.86,-166547.5,91052.5,278547.5
-351.36,-528.02,1031.14,-177240.0,73080.0,237965.0
-227.41,-538.75,1084.09,-164325.0,59535.0,178727.5
-93.33,-544.36,1154.61,-123917.5,47092.5,107152.5
40.14,-545.58,1232.57,-59885.0,26775.0,30240.0
163.24,-544.0,1306.62,13125.0,18007.5,-44030.0
269.5,-542.17,1364.69,79187.5,24675.0,-112997.5
354.29,-541.8,1400.8,139492.5,28332.5,-169540.0
417.85,-544.85,1411.05,197907.5,24552.5,-213622.5
457.5,-550.59,1383.24,219380.0,12792.5,-260452.5
464.94,-555.95,1324.68,182805.0,-17307.5,-295015.0
433.83,-563.27,1257.21,126245.0,-52955.0,-320740.0
348.92,-576.21,1194.87,70017.5,-117565.0,-337190.0
196.18,-593.77,1147.9,34562.5,-221725.0,-298690.0
-3.05,-607.07,1128.74,-2170.0,-282590.0,-197855.0
-205.45,-607.07,1146.56,-22050.0,-237160.0,-82005.0
-379.3,-592.68,1187.91,7472.5,-98945.0,15312.5
-511.55,-570.59,1217.8,77455.0,50837.5,87150.0
-604.02,-548.51,1208.04,116585.0,140980.0,147122.5
-663.07,-530.21,1159.85,96985.0,164692.5,201355.0
-691.5,-515.21,1093.36,45395.0,147490.0,243897.5
-690.4,-503.98,1027.85,-13965.0,119315.0,269780.0
-660.02,-498.86,976.98,-75687.5,100327.5,282520.0
-599.14,-499.1,951.48,-129115.0,92207.5,281032.5
-508.98,-501.66,954.53,-161962.5,87710.0,254240.0
-399.43,-503.13,983.32,-176452.5,64715.0,211610.0
-277.92,-502.4,1035.05,-168297.5,37275.0,167387.5
-142.62,-500.2,1105.08,-139755.0,20282.5,116462.5
3.66,-498.0,1187.06,-92907.5,34230.0,35472.5
140.3,-493.73,1268.8,-16362.5,43855.0,-63980.0
244.85,-487.39,1336.39,84700.0,12495.0,-134015.0
315.0,-485.93,1373.48,173110.0,-24570.0,-182962.5
356.0,-489.95,1366.77,195842.5,-33250.0,-224297.5
370.88,-492.76,1325.16,171780.0,-45902.5,-253277.5
361.61,-493.61,1268.07,118632.5,-55107.5,-271145.0
327.2,-495.2,1212.44,60200.0,-73622.5,-290657.5
255.96,-500.2,1164.86,34492.5,-128607.5,-306215.0
131.39,-505.81,1123.25,13300.0,-217630.0,-275642.5
-32.94,-507.03,1100.32,-22400.0,-257845.0,-184765.0
-203.01,-502.88,1104.59,-43085.0,-193690.0,-75862.5
-356.0,-493.12,1126.67,-30712.5,-72345.0,20702.5
-478.61,-478.61,1148.51,6737.5,47197.5,98490.0
-565.96,-463.6,1149.97,39830.0,119822.5,159022.5
-621.47,-453.11,1125.82,40442.5,144532.5,205642.5
-648.92,-448.72,1084.34,16030.0,137497.5,241325.0
-650.75,-450.42,1037.12,-31447.5,117775.0,268625.0
-624.27,-458.6,1000.64,-89862.5,99925.0,287805.0
-563.27,-470.8,988.81,-141155.0,102375.0,287507.5
-466.53,-483.85,1003.94,-170327.5,91280.0,254695.0
-345.5,-493.25,1042.37,-172165.0,45255.0,198047.5
-214.23,-497.15,1103.86,-152985.0,2135.0,132370.0
-81.5,-497.15,1184.38,-97615.0,-9502.5,66150.0
46.36,-493.37,1269.04,-7682.5,7420.0,-577.5
161.16,-486.05,1336.75,89967.5,24010.0,-69212.5
253.52,-478.0,1374.94,161840.0,23975.0,-129675.0
321.1,-471.41,1377.01,205012.5,8960.0,-177992.5
365.51,-465.92,1344.44,200427.5,-15767.5,-209160.0
389.18,-460.67,1287.1,167562.5,-51800.0,-233555.0
389.06,-456.04,1216.34,102567.5,-82740.0,-249550.0
361.49,-455.67,1153.51,18672.5,-95952.5,-253715.0
302.44,-460.67,1118.5,-38237.5,-102637.5,-256165.0
202.64,-468.6,1112.4,-44065.0,-137392.5,-248815.0
62.22,-476.78,1126.79,-16747.5,-179760.0,-201092.5
-98.82,-484.22,1151.19,11952.5,-177152.5,-122255.0
-257.91,-487.27,1176.81,33617.5,-108517.5,-40057.5
-400.65,-482.63,1193.65,52990.0,-12862.5,41247.5
-515.45,-472.63,1192.18,72887.5,59027.5,118492.5
-595.48,-463.84,1168.88,79432.5,108062.5,184467.5
-641.72,-458.96,1125.57,62527.5,137147.5,233835.0
-656.85,-457.38,1070.55,19110.0,142660.0,267225.0
-641.48,-458.6,1015.65,-37397.5,129552.5,289082.5
-593.16,-462.62,977.59,-97632.5,110530.0,295365.0
-508.5,-468.24,971.61,-140822.5,113977.5,275117.5
-396.87,-472.63,993.45,-160317.5,107835.0,230772.5
-270.47,-473.6,1036.02,-165480.0,82355.0,182420.0
-132.61,-469.58,1102.15,-156432.5,71207.5,126927.5
14.03,-459.45,1189.5,-111352.5,76510.0,51292.5
156.28,-444.2,1285.39,-14892.5,73570.0,-37887.5
274.87,-429.2,1364.57,119455.0,24272.5,-116060.0
361.12,-423.71,1404.34,214235.0,-28122.5,-179252.5
415.17,-430.05,1386.53,255150.0,-66167.5,-228340.0
438.47,-441.76,1320.65,195195.0,-98455.0,-263392.5
424.56,-456.65,1241.47,90492.5,-118825.0,-283412.5
365.88,-476.04,1179.74,-13947.5,-114292.5,-277025.0
260.35,-498.61,1156.19,-69597.5,-103845.0,-255850.0
113.46,-515.82,1167.42,-56647.5,-128485.0,-210682.5
-52.09,-522.53,1196.45,1645.0,-159215.0,-139702.5
-211.55,-520.7,1222.44,53760.0,-132107.5,-58345.0
-350.51,-511.18,1228.91,81760.0,-52255.0,15557.5
-461.53,-496.78,1207.8,87885.0,28245.0,85505.0
-541.19,-481.17,1162.54,62807.5,79310.0,149345.0
-589.38,-467.5,1108.0,20580.0,101395.0,202440.0
-605.12,-456.89,1056.76,-25917.5,110425.0,238157.5
-589.5,-448.96,1018.21,-72485.0,99995.0,255237.5
-546.56,-442.25,1001.01,-97317.5,83055.0,256375.0
-480.68,-435.78,1003.33,-105612.5,73465.0,241692.5
-396.13,-429.32,1018.58,-109970.0,64680.0,217507.5
-290.48,-422.36,1045.05,-116375.0,61705.0,184537.5
-160.8,-414.68,1088.24,-123865.0,60305.0,125335.0
-22.45,-405.04,1150.7,-99452.5,44572.5,47600.0
105.9,-392.84,1226.22,-34965.0,15890.0,-30887.5
213.38,-379.66,1300.03,67112.5,-11340.0,-98665.0
295.36,-370.76,1349.08,157307.5,-24395.0,-152827.5
353.56,-369.9,1359.93,206920.0,-33985.0,-197592.5
389.79,-372.59,1324.43,223142.5,-49577.5,-236285.0
401.87,-374.78,1253.55,156660.0,-75635.0,-261310.0
385.76,-379.18,1176.69,59832.5,-104020.0,-272825.0
337.45,-389.3,1117.03,-18462.5,-107152.5,-276080.0
242.54,-405.04,1083.24,-57872.5,-118020.0,-263042.5
97.6,-421.63,1078.97,-76335.0,-153317.5,-199517.5
-66.61,-435.3,1106.3,-62527.5,-152670.0,-107590.0
-221.31,-445.3,1148.87,-11392.5,-100100.0,-24762.5
-354.78,-449.08,1182.79,40232.5,-24955.0,47127.5
-461.77,-447.13,1189.99,70787.5,35367.5,110792.5
-540.46,-443.59,1168.88,74165.0,69335.0,172725.0
-589.02,-441.76,1128.99,52727.5,91682.5,224787.5
-606.58,-442.62,1080.92,7630.0,100782.5,265772.5
-592.31,-445.3,1039.44,-43540.0,96110.0,291707.5
-544.36,-448.23,1015.77,-81392.5,92050.0,298357.5
-461.89,-450.55,1011.99,-100800.0,96372.5,277410.0
-351.12,-449.2,1022.85,-109847.5,88182.5,233940.0
-222.28,-443.1,1045.78,-121835.0,52342.5,188090.0
-76.74,-433.22,1087.02,-125510.0,26600.0,140420.0
82.96,-421.14,1147.78,-105367.5,39200.0,63490.0
238.75,-406.75,1218.05,-49577.5,45447.5,-40040.0
366.12,-392.35,1284.17,58992.5,15977.5,-130742.5
455.55,-385.28,1325.41,157430.0,-18410.0,-193672.5
511.79,-392.96,1327.73,206062.5,-38377.5,-241815.0
538.51,-409.92,1281.98,198275.0,-36347.5,-277830.0
535.82,-429.32,1206.58,115605.0,-45587.5,-299075.0
498.86,-452.5,1138.99,15785.0,-52815.0,-304500.0
418.34,-480.92,1098.0,-51082.5,-64190.0,-296572.5
286.7,-509.23,1092.75,-80395.0,-100572.5,-263270.0
117.61,-528.38,1122.64,-68372.5,-141015.0,-188370.0
-54.9,-536.92,1173.64,367.5,-122482.5,-102392.5
-210.33,-537.65,1213.9,72695.0,-41527.5,-29960.0
-346.48,-531.19,1218.78,101955.0,41352.5,36697.5
-459.94,-521.18,1188.77,96180.0,86555.0,110495.0
-544.73,-510.57,1137.53,64837.5,110285.0,178395.0
-599.75,-501.18,1079.82,19215.0,112122.5,231297.5
-624.15,-494.95,1028.22,-29207.5,100432.5,271407.5
-614.51,-491.66,991.25,-71417.5,80325.0,295330.0
-568.52,-490.44,975.27,-101587.5,71400.0,300667.5
-487.51,-490.56,980.51,-114887.5,81147.5,278285.0
-376.37,-489.34,1002.11,-123602.5,84577.5,232697.5
-244.85,-483.85,1038.95,-129657.5,60375.0,172987.5
-105.53,-475.07,1092.88,-113067.5,29820.0,109795.0
30.62,-463.72,1159.85,-72135.0,20842.5,42525.0
155.43,-449.33,1229.27,-8365.0,31395.0,-25252.5
264.62,-434.32,1285.88,70735.0,32777.5,-91035.0
352.95,-424.56,1315.65,138232.5,13527.5,-153580.0
415.78,-422.85,1314.18,175665.0,-15417.5,-209247.5
451.64,-426.15,1279.78,170397.5,-34265.0,-252542.5
457.74,-432.86,1224.39,108290.0,-46690.0,-278985.0
432.37,-444.08,1169.74,41090.0,-60305.0,-290745.0
371.12,-460.67,1129.23,-11007.5,-79327.5,-299110.0
257.54,-479.22,1109.83,-37362.5,-135205.0,-287857.5
90.89,-494.83,1113.62,-35122.5,-202982.5,-219345.0
-96.26,-504.35,1140.09,-9310.0,-203227.5,-112875.0
-270.47,-506.3,1177.79,26057.5,-108640.0,-14385.0
-415.04,-500.32,1204.38,67532.5,17342.5,64977.5
-523.62,-489.59,1202.19,88567.5,99802.5,132965.0
-597.43,-478.97,1172.42,83982.5,129360.0,193375.0
-637.69,-471.29,1124.72,60830.0,127277.5,241255.0
-644.89,-467.26,1068.11,14560.0,110005.0,273490.0
-619.88,-466.89,1016.26,-45010.0,89530.0,287875.0
-567.54,-468.97,983.32,-99155.0,75390.0,286282.5
-493.98,-472.38,973.56,-130340.0,73832.5,269867.5
-403.33,-476.41,982.22,-143710.0,67427.5,242602.5
-293.04,-480.44,1008.82,-151427.5,65450.0,207812.5
-162.02,-483.49,1055.3,-139422.5,81917.5,147455.0
-23.42,-482.88,1116.3,-105980.0,81305.0,65625.0
106.02,-477.02,1185.84,-56962.5,47442.5,-15050.0
216.79,-468.97,1257.58,9047.5,7857.5,-89197.5
302.8,-464.33,1317.84,96320.0,-7105.0,-149292.5
362.71,-466.89,1349.93,184887.5,-7367.5,-193532.5
399.92,-474.34,1344.2,228637.5,-10080.0,-231910.0
413.95,-481.9,1302.11,215355.0,-23205.0,-262307.5
401.5,-488.12,1237.93,142012.5,-44187.5,-282345.0
360.27,-495.44,1180.11,58677.5,-80045.0,-305287.5
273.04,-507.15,1139.48,11112.5,-142905.0,-319760.0
122.49,-520.21,1114.1,-17377.5,-240327.5,-279387.5
-67.1,-526.55,1117.52,-36207.5,-278092.5,-166250.0
-250.59,-522.89,1151.19,-25305.0,-182402.5,-50662.5
-404.19,-510.45,1192.18,24272.5,-21000.0,36435.0
-521.18,-493.25,1209.02,84682.5,97072.5,109655.0
-600.48,-476.9,1186.94,95672.5,149030.0,174510.0
-642.94,-464.45,1140.33,61442.5,165235.0,222635.0
-651.36,-455.79,1085.56,13527.5,156765.0,251055.0
-629.89,-450.42,1033.58,-43890.0,126997.5,267242.5
-579.5,-447.74,999.67,-104615.0,109585.0,264390.0
-503.62,-446.03,989.3,-144410.0,112945.0,233800.0
-410.65,-442.25,997.23,-158095.0,91630.0,189070.0
-308.54,-436.39,1022.12,-155610.0,43487.5,145652.5
-200.32,-430.42,1066.28,-135677.5,1155.0,102882.5
-88.08,-424.8,1126.55,-96302.5,-3167.5,54932.5
24.03,-418.95,1193.16,-41667.5,16835.0,-3010.0
127.61,-412.48,1253.92,22155.0,29015.0,-67462.5
212.89,-407.97,1297.96,88147.5,18830.0,-123725.0
274.99,-409.19,1318.82,143780.0,595.0,-170065.0
313.42,-415.78,1314.18,175787.5,-16887.5,-208477.5
329.4,-423.58,1286.98,173827.5,-29330.0,-235900.0
324.28,-430.42,1245.13,142537.5,-36732.5,-256847.5
298.9,-437.0,1199.75,90072.5,-50680.0,-281120.0
241.93,-446.03,1158.02,42455.0,-109725.0,-309032.5
131.52,-457.99,1122.52,12687.5,-218557.5,-299320.0
-27.69,-467.26,1102.88,-16677.5,-294227.5,-215075.0
-199.84,-468.97,1109.22,-39970.0,-251020.0,-100817.5
-357.22,-461.53,1133.75,-41037.5,-126665.0,-4252.5
-486.78,-447.01,1161.56,-7017.5,-6702.5,75477.5
-580.72,-432.0,1177.18,46865.0,72747.5,143552.5
-640.74,-421.39,1169.49,75687.5,112665.0,196787.5
-672.1,-417.12,1140.7,68302.5,130130.0,241500.0
-674.54,-419.68,1100.68,25917.5,139755.0,273717.5
-646.6,-426.02,1063.35,-30887.5,143937.5,287892.5
-591.21,-433.1,1036.76,-81427.5,138757.5,282852.5
-513.13,-440.42,1024.31,-123305.0,115710.0,256340.0
-419.68,-445.79,1031.88,-149135.0,73605.0,217945.0
-319.76,-448.47,1059.69,-144585.0,31360.0,180407.5
-219.36,-449.57,1098.49,-110302.5,-1925.0,148977.5
-113.95,-449.45,1140.7,-75635.0,3185.0,119070.0
2.44,-448.23,1184.25,-52447.5,55160.0,64312.5
123.22,-443.84,1225.49,-19372.5,101447.5,-23310.0
227.29,-436.52,1258.31,28105.0,69685.0,-114152.5
298.41,-431.15,1280.02,81025.0,-8557.5,-175070.0
340.14,-431.88,1288.32,135992.5,-49455.0,-211872.5
359.17,-440.18,1275.88,161717.5,-51432.5,-247415.0
352.58,-451.52,1242.69,153037.5,-52045.0,-275992.5
319.15,-461.89,1200.24,106627.5,-71837.5,-298007.5
249.49,-471.65,1162.42,46795.0,-136325.0,-315980.0
126.15,-478.97,1141.31,-927.5,-226450.0,-288820.0
-39.89,-480.92,1146.07,-23362.5,-260942.5,-189157.5
-210.08,-476.17,1174.86,-1470.0,-180232.5,-69125.0
-354.78,-465.06,1206.82,48195.0,-24045.0,25690.0
-464.45,-448.96,1214.63,82635.0,104195.0,96810.0
-543.14,-431.15,1191.94,78540.0,154507.5,154017.5
-595.85,-416.63,1151.31,54565.0,153650.0,205485.0
-621.83,-407.48,1104.47,22172.5,140035.0,246067.5
-620.74,-405.16,1059.2,-23187.5,135170.0,274890.0
-592.55,-408.82,1023.95,-77717.5,140822.5,286142.5
-540.7,-416.51,1006.5,-123550.0,152687.5,273402.5
-473.36,-425.41,1009.43,-152967.5,149345.0,247730.0
-393.57,-433.34,1032.0,-164465.0,131845.0,216877.5
-300.12,-439.69,1072.14,-150832.5,103407.5,171342.5
-197.27,-444.32,1124.11,-115307.5,69545.0,109865.0
-93.09,-446.76,1183.52,-67270.0,35000.0,41230.0
3.78,-447.01,1243.79,-12197.5,4707.5,-27807.5
83.69,-446.28,1297.1,45395.0,-22960.0,-85365.0
145.91,-447.25,1336.14,100695.0,-27510.0,-126700.0
194.71,-452.38,1353.71,149415.0,-28245.0,-166390.0
231.56,-459.94,1347.61,177590.0,-42437.5,-207357.5
254.49,-466.53,1321.63,174965.0,-69422.5,-248920.0
258.88,-472.87,1283.93,147875.0,-109025.0,-281540.0
242.41,-480.56,1243.55,106137.5,-141977.5,-305480.0
200.81,-489.22,1205.85,60935.0,-170922.5,-324747.5
120.9,-496.66,1174.86,14192.5,-216160.0,-327757.5
-6.59,-500.32,1158.63,-25077.5,-261660.0,-275135.0
-165.43,-498.0,1163.15,-37135.0,-254677.5,-168472.5
-325.37,-489.71,1184.38,-8435.0,-174335.0,-54897.5
-464.82,-476.17,1205.85,33565.0,-41982.5,42262.5
-574.25,-459.7,1209.51,59220.0,74882.5,120767.5
-652.94,-445.3,1189.99,56857.5,136185.0,186007.5
-702.6,-437.25,1156.56,35385.0,155365.0,240362.5
-723.95,-436.76,1118.86,7682.5,153702.5,280035.0
-715.41,-442.98,1083.36,-29172.5,146772.5,303922.5
-671.98,-453.6,1057.5,-75197.5,140560.0,308297.5
-592.07,-464.58,1049.44,-119857.5,134172.5,280210.0
-487.51,-472.14,1061.16,-142082.5,110460.0,224665.0
-373.08,-474.46,1090.8,-141207.5,57855.0,169925.0
-254.61,-473.12,1138.75,-121275.0,10395.0,122955.0
-133.47,-469.82,1200.24,-81147.5,5372.5,74935.0
-13.66,-463.6,1264.65,-28122.5,27195.0,18077.5
99.55,-454.08,1320.77,32060.0,39445.0,-46952.5
197.27,-443.96,1358.1,98420.0,19810.0,-111160.0
272.06,-438.22,1371.28,158830.0,-13912.5,-163852.5
322.81,-437.74,1358.84,195562.5,-35840.0,-206955.0
349.04,-439.93,1320.53,199657.5,-49000.0,-241955.0
348.19,-443.96,1255.14,160650.0,-58905.0,-262745.0
319.4,-451.28,1179.86,82390.0,-100957.5,-278267.5
250.59,-464.33,1120.57,262.5,-180442.5,-287105.0
125.42,-482.63,1087.39,-63227.5,-270130.0,-252700.0
-40.75,-497.39,1092.14,-112052.5,-301262.5,-149450.0
-206.3,-502.15,1136.67,-119962.5,-220955.0,-31727.5
-342.09,-495.44,1201.82,-61337.5,-84017.5,48195.0
-442.98,-481.17,1256.84,48212.5,47022.5,99627.5
-515.08,-465.67,1270.87,127750.0,122150.0,146912.5
-563.4,-453.47,1242.45,118580.0,155627.5,197960.0
-585.36,-445.54,1193.65,77385.0,163012.5,243442.5
-574.25,-440.91,1140.09,19092.5,166320.0,276150.0
-526.8,-438.83,1097.27,-54285.0,162032.5,282642.5
-443.84,-437.61,1079.58,-110372.5,153807.5,256725.0
-335.13,-434.56,1087.75,-132160.0,128345.0,204505.0
-214.72,-428.1,1117.28,-128415.0,76510.0,145670.0
-88.57,-419.44,1167.54,-109987.5,45377.5,85890.0
39.53,-408.82,1234.27,-69702.5,50575.0,14997.5
157.14,-396.01,1304.91,-717.5,56210.0,-63385.0
249.49,-384.18,1363.47,106102.5,42472.5,-122640.0
313.3,-379.79,1385.19,198327.5,21805.0,-163765.0
351.97,-384.42,1362.62,221812.5,-11375.0,-208092.5
362.34,-393.45,1309.3,197400.0,-46725.0,-242375.0
339.77,-404.67,1237.08,131285.0,-96985.0,-262885.0
275.96,-418.34,1168.76,37467.5,-163222.5,-270742.5
158.97,-434.56,1124.47,-44380.0,-227220.0,-242252.5
-0.24,-447.25,1115.93,-87850.0,-258685.0,-158410.0
-162.99,-449.2,1146.43,-80797.5,-207060.0,-54722.5
-300.12,-439.44,1196.82,-15610.0,-83807.5,24255.0
-405.53,-423.58,1229.76,71347.5,34545.0,78505.0
-484.46,-407.97,1222.68,112910.0,96320.0,128362.5
-539.24,-395.04,1183.16,100030.0,124092.5,182665.0
-564.98,-385.76,1127.89,53865.0,142712.5,228235.0
-556.2,-378.2,1072.01,-14315.0,151060.0,257722.5
-510.45,-371.86,1032.49,-86660.0,144042.5,259350.0
-432.49,-366.49,1020.16,-129622.5,129430.0,230195.0
-333.3,-359.78,1032.12,-138180.0,97597.5,182770.0
-222.04,-350.63,1062.01,-130305.0,54932.5,131372.5
-104.19,-340.38,1108.37,-110022.5,23450.0,74322.5
14.15,-329.64,1169.0,-73132.5,13912.5,10220.0
123.95,-319.15,1235.98,-9257.5,18532.5,-58065.0
213.38,-311.22,1292.35,91227.5,15995.0,-114467.5
276.7,-310.73,1319.19,168525.0,-752.5,-158462.5
313.91,-316.35,1305.64,189910.0,-18235.0,-198677.5
324.15,-324.03,1263.68,151672.5,-42455.0,-224525.0
305.61,-333.79,1211.95,97790.0,-71680.0,-241062.5
255.1,-345.02,1162.9,37957.5,-112717.5,-252577.5
160.67,-357.34,1127.4,-8557.5,-179042.5,-247012.5
20.37,-367.95,1113.13,-42157.5,-238595.0,-186252.5
-135.42,-372.59,1128.13,-49647.5,-218050.0,-88357.5
-274.99,-369.05,1163.03,-17342.5,-111055.0,-6825.0
-389.18,-359.41,1190.48,46987.5,6335.0,50785.0
-479.7,-348.07,1187.43,91000.0,73552.5,104055.0
-547.41,-337.94,1154.0,85400.0,101080.0,159285.0
-588.41,-330.99,1105.69,51975.0,113382.5,210507.5
-596.09,-327.57,1055.3,1417.5,130882.5,243250.0
-569.5,-326.11,1012.84,-60147.5,139597.5,256567.5
-509.35,-325.62,990.52,-110635.0,136920.0,244965.0
-423.34,-325.13,991.37,-133210.0,123585.0,205782.5
-322.81,-322.57,1010.28,-141505.0,83125.0,160877.5
-213.13,-318.79,1048.71,-144480.0,43452.5,117127.5
-98.33,-314.76,1107.64,-122745.0,36662.5,66640.0
14.76,-309.88,1177.79,-72625.0,45605.0,6352.5
116.39,-305.49,1245.86,-385.0,38062.5,-55615.0
197.27,-304.27,1298.32,85575.0,12740.0,-105910.0
254.49,-309.15,1324.68,148540.0,-10552.5,-147630.0
289.38,-318.42,1323.7,173145.0,-22312.5,-185850.0
302.56,-327.33,1299.54,167912.5,-28035.0,-212397.5
295.12,-335.99,1255.62,130340.0,-36575.0,-224892.5
269.13,-345.02,1208.04,75897.5,-63910.0,-236950.0
219.6,-354.53,1170.22,29610.0,-104772.5,-254677.5
130.3,-364.78,1141.92,1452.5,-174545.0,-255920.0
-4.88,-373.32,1125.69,-15120.0,-248500.0,-207585.0
-164.7,-377.35,1127.4,-13160.0,-273735.0,-116042.5
-318.91,-374.66,1146.8,11900.0,-205485.0,-18865.0
-446.64,-365.39,1169.13,45412.5,-58940.0,65642.5
-538.75,-354.17,1172.91,71680.0,89722.5,134732.5
-594.87,-345.5,1149.61,68460.0,173250.0,193007.5
-615.98,-339.77,1110.08,33197.5,209352.5,232102.5
-608.05,-336.48,1065.18,-13755.0,205870.0,249935.0
-576.69,-334.52,1023.82,-66272.5,161717.5,256725.0
-521.67,-334.77,997.96,-112490.0,118475.0,243390.0
-446.03,-335.99,992.1,-138355.0,86135.0,207462.5
-356.85,-336.96,1005.4,-148435.0,60007.5,163922.5
-260.1,-336.84,1037.61,-144445.0,40180.0,124232.5
-155.18,-335.99,1087.51,-121572.5,25655.0,83142.5
-44.16,-335.5,1149.61,-81725.0,29015.0,31727.5
62.71,-334.52,1213.9,-30222.5,34965.0,-27335.0
155.79,-333.06,1270.87,25147.5,32690.0,-83510.0
224.11,-335.74,1314.18,80797.5,-5127.5,-136727.5
268.28,-339.04,1339.56,143640.0,-33302.5,-171640.0
295.48,-345.87,1332.24,191082.5,-24132.5,-193252.5
301.95,-355.87,1294.42,165182.5,-42787.5,-230177.5
284.26,-362.95,1250.13,110862.5,-65607.5,-243425.0
240.1,-372.47,1210.48,64837.5,-89932.5,-251247.5
165.07,-379.18,1181.2,25620.0,-132947.5,-245735.0
61.85,-380.64,1164.86,4060.0,-166722.5,-215617.5
-59.9,-379.42,1155.95,10605.0,-180582.5,-165917.5
-193.49,-375.27,1149.48,33127.5,-163625.0,-97597.5
-326.47,-366.37,1144.73,41895.0,-103460.0,-12705.0
-441.03,-353.56,1138.38,33985.0,-12985.0,68110.0
-523.99,-341.36,1126.06,28962.5,69527.5,132160.0
-574.62,-332.82,1103.86,25637.5,118090.0,176277.5
-600.73,-328.91,1072.75,10535.0,126175.0,206150.0
-607.93,-329.77,1039.07,-20090.0,100660.0,230825.0
-596.58,-334.52,1011.87,-56455.0,67392.5,252962.5
-561.57,-342.09,999.18,-89302.5,63945.0,262675.0
-498.49,-351.97,1005.04,-112962.5,94570.0,252927.5
-404.55,-362.1,1028.22,-120662.5,133122.5,219047.5
-286.94,-370.03,1064.45,-111860.0,128450.0,161017.5
-158.97,-373.32,1114.59,-92470.0,81777.5,96425.0
-30.38,-371.61,1177.54,-57155.0,39952.5,34230.0
90.04,-366.49,1244.28,-5197.5,20160.0,-34212.5
191.66,-358.56,1302.23,55125.0,12845.0,-96652.5
269.74,-352.58,1340.17,124985.0,1225.0,-144357.5
325.01,-353.07,1349.81,188405.0,-22242.5,-186217.5
359.53,-357.46,1325.29,215862.5,-50015.0,-224735.0
371.86,-360.39,1265.26,172392.5,-75460.0,-255202.5
359.05,-364.54,1194.14,89530.0,-102620.0,-275222.5
315.13,-374.91,1135.45,16117.5,-130322.5,-289415.0
225.94,-389.55,1092.75,-32725.0,-197977.5,-286230.0
86.01,-402.11,1073.23,-63280.0,-280840.0,-228270.0
-81.5,-409.55,1082.87,-79625.0,-298007.5,-119245.0
-239.12,-411.63,1121.67,-77542.5,-213325.0,-12635.0
-366.98,-408.94,1176.32,-30170.0,-68985.0,62090.0
-462.87,-402.48,1220.73,55317.5,56805.0,115535.0
-529.72,-395.52,1234.4,115220.0,126192.5,163922.5
-570.23,-393.08,1215.85,120890.0,157920.0,209615.0
-584.38,-396.74,1173.64,87132.5,163555.0,249322.5
-570.11,-403.58,1122.03,18917.5,147000.0,274750.0
-528.02,-411.26,1080.92,-57102.5,120137.5,279160.0
-462.38,-418.58,1061.64,-110162.5,91962.5,266770.0
-379.91,-424.68,1064.08,-131302.5,47512.5,240800.0
-286.09,-427.98,1083.6,-124950.0,-19040.0,213377.5
-172.63,-429.93,1116.54,-104615.0,-69282.5,177362.5
-31.11,-431.88,1162.42,-73500.0,-32620.0,109655.0
119.8,-430.42,1212.31,-10902.5,47372.5,14297.5
251.32,-422.61,1248.3,57680.0,69037.5,-72572.5
353.07,-410.41,1264.9,102305.0,30100.0,-133980.0
429.07,-398.94,1264.65,128520.0,-13562.5,-177047.5
484.1,-390.89,1245.13,141312.5,-43347.5,-219870.0
515.69,-385.76,1205.6,127890.0,-65397.5,-260995.0
518.87,-384.06,1153.88,77962.5,-76160.0,-287227.5
490.2,-388.2,1105.08,5722.5,-83422.5,-294385.0
428.71,-399.31,1075.55,-52430.0,-87972.5,-287052.5
326.72,-415.29,1071.53,-72695.0,-110092.5,-273717.5
176.78,-429.44,1092.63,-49980.0,-164307.5,-216545.0
2.56,-438.83,1133.01,-4917.5,-163817.5,-102917.5
-155.43,-444.57,1175.84,34265.0,-64610.0,3325.0
-278.77,-445.42,1202.92,57575.0,68967.5,70595.0
-370.88,-440.18,1205.24,70140.0,144480.0,123235.0
-436.52,-432.25,1184.25,69055.0,158707.5,174352.5
-476.17,-426.02,1145.82,48335.0,143745.0,218767.5
-489.46,-421.63,1098.73,1767.5,116060.0,249620.0
-476.53,-419.68,1056.4,-55457.5,86835.0,265580.0
-438.83,-419.68,1032.49,-97457.5,75197.5,265072.5
-378.69,-419.31,1029.56,-110810.0,73500.0,250250.0
-297.68,-416.87,1041.15,-107660.0,71820.0,221095.0
-198.74,-412.48,1062.5,-103477.5,60637.5,182980.0
-83.08,-406.75,1094.22,-99942.5,51695.0,136745.0
45.75,-399.18,1139.24,-90860.0,53287.5,76265.0
176.17,-388.2,1194.99,-60585.0,53147.5,367.5
290.24,-374.3,1255.01,1155.0,29977.5,-78435.0
376.74,-361.12,1305.64,98490.0,-4655.0,-138600.0
436.52,-356.48,1328.34,165515.0,-25585.0,-183347.5
473.85,-360.63,1317.11,198870.0,-34352.5,-229512.5
485.32,-365.88,1274.9,186480.0,-38080.0,-265807.5
466.04,-373.32,1213.17,122132.5,-51712.5,-279335.0
412.48,-387.23,1152.9,39532.5,-89197.5,-287525.0
309.51,-404.8,1112.15,-32270.0,-153790.0,-277672.5
155.31,-419.92,1102.15,-78330.0,-217980.0,-210525.0
-18.3,-429.93,1124.6,-69650.0,-209982.5,-103547.5
-176.41,-435.54,1164.37,-11252.5,-106137.5,-12005.0
-309.03,-434.32,1195.36,43260.0,39060.0,54267.5
-418.09,-427.85,1199.02,67970.0,135852.5,113715.0
-500.57,-421.14,1174.13,65135.0,168122.5,173407.5
-551.68,-415.53,1130.33,38955.0,158795.0,220675.0
-568.03,-412.48,1078.24,-6142.5,127260.0,252472.5
-548.02,-412.36,1030.9,-63735.0,94972.5,269237.5
-491.78,-414.19,1005.04,-121467.5,84227.5,266017.5
-404.31,-416.75,1006.5,-159512.5,80850.0,239050.0
-293.04,-417.48,1033.1,-170152.5,59290.0,198100.0
-166.29,-414.68,1085.43,-156607.5,38657.5,147717.5
-33.31,-409.8,1158.02,-103267.5,33897.5,85505.0
97.84,-402.11,1236.71,-25532.5,52482.5,12670.0
216.67,-392.11,1305.16,55580.0,50225.0,-65362.5
311.47,-384.54,1350.91,136885.0,19670.0,-132475.0
374.78,-382.35,1364.69,195212.5,-16817.5,-188335.0
405.53,-383.08,1345.29,209597.5,-45972.5,-226905.0
405.28,-384.54,1299.06,178045.0,-61250.0,-246662.5
376.0,-388.94,1239.64,111842.5,-73255.0,-256445.0
313.05,-396.99,1185.72,43925.0,-108552.5,-265650.0
204.47,-405.77,1146.8,6317.5,-184940.0,-247572.5
54.41,-411.51,1127.28,-8470.0,-256252.5,-177642.5
-107.36,-412.48,1133.01,-10307.5,-237405.0,-79275.0
-254.49,-408.82,1156.93,2240.0,-117127.5,2712.5
-378.2,-400.89,1176.93,36347.5,12267.5,66395.0
-475.19,-390.4,1173.76,64837.5,79100.0,125142.5
-543.27,-381.49,1146.07,66955.0,101290.0,180687.5
-581.45,-377.47,1102.03,44327.5,113155.0,227202.5
-585.6,-378.81,1052.01,-8277.5,134312.5,260032.5
-550.83,-384.3,1008.94,-82670.0,156730.0,268887.5
-478.73,-390.16,987.35,-150010.0,168402.5,242707.5
-383.32,-391.99,992.47,-183347.5,139772.5,194355.0
-278.4,-388.2,1026.02,-178430.0,62195.0,148207.5
-165.68,-381.62,1086.65,-137987.5,6912.5,106662.5
-45.14,-373.56,1162.42,-74287.5,13545.0,56315.0
78.08,-362.71,1237.2,-9852.5,46060.0,-7035.0
192.76,-348.43,1298.93,50960.0,48790.0,-74935.0
287.19,-334.52,1339.68,109655.0,15820.0,-136990.0
354.53,-325.37,1354.93,156502.5,-22522.5,-189647.5
393.82,-323.3,1343.22,176662.5,-49192.5,-232260.0
405.65,-326.96,1307.35,162242.5,-66972.5,-263287.5
388.57,-334.4,1256.72,118125.0,-76702.5,-279370.0
338.06,-347.21,1203.65,59360.0,-103897.5,-287367.5
240.22,-365.02,1162.17,9310.0,-173880.0,-272982.5
93.21,-384.79,1142.04,-15837.5,-241325.0,-208320.0
-79.3,-404.06,1145.82,-16117.5,-238542.5,-103862.5
-244.85,-417.36,1169.13,-6737.5,-134907.5,1120.0
-381.98,-421.27,1194.38,22260.0,10832.5,84315.0
-484.46,-419.8,1199.75,59342.5,100992.5,150500.0
-552.54,-418.34,1178.28,74970.0,139212.5,207970.0
-587.67,-419.07,1135.7,55510.0,153545.0,252210.0
-587.8,-421.39,1083.73,4042.5,157867.5,283045.0
-549.37,-424.07,1036.27,-69947.5,159810.0,290535.0
-468.11,-426.51,1010.4,-145250.0,160650.0,268870.0
-349.41,-424.56,1015.16,-195265.0,143237.5,209440.0
-213.13,-415.29,1051.15,-206167.5,65852.5,138565.0
-73.2,-401.01,1122.28,-182927.5,-6650.0,72817.5
63.56,-383.45,1219.63,-106662.5,-21700.0,1592.5
186.05,-363.44,1321.02,19722.5,7052.5,-72975.0
282.8,-346.24,1393.97,158935.0,22645.0,-135012.5
349.29,-339.89,1418.25,234745.0,4550.0,-188842.5
383.57,-342.7,1398.0,267995.0,-25392.5,-232330.0
385.89,-348.43,1340.9,243355.0,-56857.5,-254870.0
358.19,-355.26,1263.07,162312.5,-84210.0,-264057.5
293.04,-365.39,1186.82,62545.0,-119315.0,-264005.0
178.85,-379.18,1129.6,-17115.0,-179760.0,-227062.5
23.55,-393.94,1103.86,-71942.5,-213832.5,-141785.0
-139.32,-404.8,1114.59,-92295.0,-171395.0,-36435.0
-279.87,-409.19,1149.73,-54460.0,-67655.0,45307.5
-387.96,-409.07,1180.11,29995.0,33950.0,103985.0
-466.77,-407.24,1178.76,85225.0,87272.5,152232.5
-520.82,-406.87,1144.6,77367.5,108605.0,200987.5
-545.46,-408.46,1094.1,34352.5,121730.0,240782.5
-536.8,-410.04,1043.34,-30887.5,134155.0,256777.5
-498.49,-409.55,1006.62,-101675.0,136132.5,251947.5
-433.59,-406.26,994.54,-147035.0,128712.5,232540.0
-342.58,-398.94,1006.99,-161752.5,96197.5,200042.5
-229.97,-386.74,1042.61,-155995.0,54635.0,154455.0
-104.43,-370.88,1099.22,-131215.0,39620.0,96827.5
24.4,-351.12,1169.49,-85155.0,46130.0,29330.0
146.64,-328.55,1244.03,-26320.0,42350.0,-39007.5
251.44,-307.2,1312.72,55702.5,19022.5,-103442.5
328.79,-293.29,1358.47,145285.0,-7962.5,-154332.5
378.08,-290.73,1371.4,194687.5,-27510.0,-196227.5
402.6,-295.73,1354.2,213902.5,-41457.5,-230405.0
403.33,-302.68,1311.38,191975.0,-54075.0,-252542.5
380.4,-312.81,1253.43,132720.0,-66062.5,-260995.0
330.25,-329.28,1195.97,61355.0,-90685.0,-266910.0
240.34,-349.29,1150.58,2922.5,-139282.5,-256060.0
106.63,-369.29,1124.6,-39480.0,-189612.5,-204365.0
-53.07,-386.01,1122.89,-58712.5,-188912.5,-119175.0
-214.48,-397.11,1142.29,-39655.0,-120977.5,-27160.0
-355.87,-402.6,1166.81,8522.5,-10745.0,54250.0
-468.11,-405.41,1172.42,57837.5,81515.0,122937.5
-550.34,-408.21,1147.29,70822.5,125282.5,183015.0
-602.56,-411.87,1100.44,40897.5,143762.5,227955.0
-626.59,-416.14,1047.0,-11112.5,140472.5,255062.5
-622.69,-421.51,999.79,-66780.0,122062.5,272912.5
-582.43,-427.73,968.92,-113382.5,102235.0,288102.5
-493.37,-434.32,962.82,-163590.0,100380.0,277410.0
-360.88,-437.25,985.39,-208442.5,89407.5,225960.0
-205.81,-433.95,1041.64,-230650.0,56455.0,155277.5
-47.95,-425.05,1130.82,-202807.5,28105.0,69177.5
96.14,-410.65,1237.81,-117460.0,6930.0,-19180.0
213.26,-395.65,1343.71,13370.0,-332.5,-98280.0
296.46,-387.47,1421.79,169575.0,5075.0,-152232.5
349.65,-392.6,1452.04,261135.0,8907.5,-195755.0
378.32,-407.24,1435.45,300160.0,9572.5,-228690.0
385.28,-422.0,1381.53,273577.5,-4847.5,-247905.0
373.32,-431.39,1308.08,196997.5,-33127.5,-261905.0
340.01,-437.49,1237.08,98157.5,-78855.0,-273455.0
278.04,-442.98,1182.42,27055.0,-143902.5,-279072.5
176.78,-446.64,1144.6,-14455.0,-203245.0,-261292.5
39.77,-446.15,1125.21,-41807.5,-229390.0,-203770.0
-110.9,-441.88,1125.82,-41160.0,-191467.5,-124162.5
-255.83,-436.76,1138.14,-3237.5,-95935.0,-44065.0
-385.15,-429.68,1143.14,38097.5,8452.5,35367.5
-488.85,-420.17,1129.48,37537.5,72520.0,106242.5
-563.03,-409.8,1103.61,14455.0,94622.5,160125.0
-612.56,-402.11,1075.43,-3605.0,90842.5,202615.0
-641.6,-399.67,1049.2,-12197.5,73325.0,240100.0
-646.72,-403.58,1027.36,-30415.0,75407.5,270725.0
-620.86,-412.97,1012.6,-62965.0,104702.5,292477.5
-557.17,-425.05,1007.84,-108062.5,133297.5,298322.5
-450.55,-436.64,1020.16,-160352.5,134697.5,266997.5
-313.17,-442.86,1056.64,-188212.5,87657.5,197575.0
-166.77,-441.15,1120.08,-167317.5,22960.0,117145.0
-26.72,-433.22,1203.16,-98070.0,-9940.0,37660.0
96.26,-422.12,1286.61,3972.5,-6702.5,-36470.0
195.69,-411.63,1347.98,100782.5,5232.5,-100537.5
269.86,-404.43,1376.53,166810.0,6947.5,-153107.5
320.49,-399.67,1373.96,203157.5,-717.5,-195020.0
349.77,-395.16,1344.07,213395.0,-15260.0,-225225.0
359.53,-389.91,1291.25,191345.0,-35105.0,-247730.0
350.02,-383.57,1225.73,138355.0,-59745.0,-261800.0
323.06,-380.15,1161.44,69370.0,-87727.5,-276062.5
269.13,-383.08,1105.69,12232.5,-145215.0,-297850.0
165.43,-390.89,1063.84,-32812.5,-243040.0,-283500.0
12.69,-398.57,1051.4,-84332.5,-311167.5,-197837.5
-156.89,-402.6,1077.87,-108167.5,-264862.5,-79677.5
-311.22,-404.67,1131.55,-69282.5,-122990.0,21822.5
-431.88,-406.14,1183.64,27282.5,48667.5,96915.0
-517.28,-406.02,1202.43,94185.0,154927.5,153387.5
-574.62,-405.53,1182.91,94272.5,185342.5,197750.0
-610.37,-408.09,1140.33,63962.5,174195.0,235095.0
-627.81,-415.41,1087.26,22347.5,136815.0,265685.0
-626.35,-427.37,1035.29,-33005.0,99697.5,288417.5
-600.97,-443.23,996.74,-94255.0,89967.5,305095.0
-540.83,-462.01,980.39,-151305.0,109760.0,310485.0
-436.88,-480.44,991.49,-202247.5,134627.5,277882.5
-298.05,-492.27,1030.9,-228112.5,107992.5,211190.0
-143.84,-494.1,1103.61,-220307.5,42017.5,126087.5
6.83,-488.0,1206.7,-161315.0,-1330.0,36767.5
141.15,-476.53,1320.77,-46357.5,-3290.0,-43522.5
252.54,-463.23,1419.59,104860.0,15207.5,-110372.5
337.7,-453.84,1479.98,225820.0,26950.0,-168717.5
395.77,-451.28,1495.84,302225.0,26967.5,-217472.5
429.44,-454.57,1469.61,346587.5,10745.0,-249742.5
440.66,-461.16,1397.51,335790.0,-26932.5,-277200.0
426.51,-468.6,1288.93,223440.0,-75162.5,-295785.0
380.27,-482.88,1182.91,92172.5,-142135.0,-313932.5
272.55,-508.01,1101.54,4760.0,-229810.0,-307440.0
91.01,-535.46,1054.93,-74497.5,-312707.5,-209702.5
-117.24,-551.81,1064.94,-155435.0,-285127.5,-59342.5
-296.22,-553.27,1125.57,-168210.0,-144025.0,53777.5
-427.24,-547.54,1200.11,-75337.5,17080.0,112630.0
-519.35,-542.17,1245.86,102655.0,106470.0,153912.5
-581.33,-539.85,1233.91,192517.5,143535.0,202930.0
-618.05,-538.75,1171.32,149555.0,145740.0,239680.0
-630.01,-536.43,1091.78,43417.5,139772.5,274260.0
-610.37,-534.6,1024.8,-68652.5,132545.0,300195.0
-549.98,-533.14,988.81,-156887.5,133175.0,305882.5
-444.57,-530.46,987.71,-225225.0,135432.5,274925.0
-307.2,-521.67,1020.65,-251825.0,100695.0,210647.5
-159.82,-505.57,1086.29,-234045.0,53900.0,139912.5
-13.91,-485.07,1178.28,-164832.5,25480.0,65607.5
121.76,-460.18,1280.27,-58152.5,23940.0,-14822.5
234.73,-433.34,1370.3,61232.5,20492.5,-88147.5
318.91,-413.21,1429.6,170537.5,9922.5,-140367.5
376.98,-406.5,1448.38,247205.0,717.5,-187547.5
408.82,-409.19,1423.86,284165.0,-11637.5,-224472.5
413.82,-410.9,1360.79,258615.0,-40775.0,-244842.5
396.26,-409.43,1277.22,178937.5,-67760.0,-247905.0
360.27,-411.63,1194.14,78750.0,-89495.0,-256760.0
285.72,-422.85,1124.84,-12915.0,-141785.0,-263655.0
149.57,-441.88,1082.26,-81900.0,-228620.0,-211662.5
-22.94,-462.62,1080.92,-145757.5,-260732.5,-100887.5
-186.42,-477.75,1121.79,-170695.0,-197295.0,-2940.0
-318.66,-483.61,1184.99,-112122.5,-89057.5,60357.5
-419.68,-481.9,1241.72,28805.0,12232.5,103635.0
-497.76,-479.95,1259.89,148557.5,78890.0,148627.5
-554.12,-479.46,1225.25,162207.5,111475.0,197942.5
-587.55,-479.46,1157.41,87115.0,123095.0,237737.5
-595.48,-479.34,1086.29,7647.5,109742.5,270340.0
-572.42,-478.12,1030.17,-63402.5,111545.0,296030.0
-509.96,-477.26,1000.52,-124075.0,135887.5,301507.5
-402.97,-475.07,999.79,-170660.0,163485.0,260802.5
-268.4,-466.77,1022.12,-193532.5,140822.5,195755.0
-124.2,-453.35,1070.06,-197837.5,84000.0,129727.5
21.11,-437.74,1148.02,-174335.0,40617.5,56560.0
155.55,-418.7,1247.33,-104142.5,27387.5,-29172.5
264.01,-397.48,1349.44,18987.5,16502.5,-103775.0
343.8,-382.23,1424.96,172690.0,5985.0,-148837.5
401.38,-381.37,1452.78,257617.5,-630.0,-194460.0
437.0,-390.77,1434.96,299897.5,-10675.0,-241325.0
443.96,-403.33,1377.01,289642.5,-43120.0,-274330.0
419.92,-419.19,1288.56,202667.5,-76947.5,-288417.5
358.8,-440.79,1203.41,89372.5,-131512.5,-304395.0
233.75,-467.75,1143.99,472.5,-212992.5,-283937.5
48.31,-492.27,1118.62,-64767.5,-274942.5,-177502.5
-146.64,-506.67,1135.94,-89757.5,-223072.5,-49665.0
-312.44,-509.47,1175.84,-57505.0,-78697.5,46357.5
-437.0,-504.71,1204.02,34317.5,48335.0,111072.5
-524.36,-498.98,1193.16,123182.5,100152.5,166477.5
-581.7,-494.95,1137.89,121082.5,105542.5,217787.5
-612.2,-492.15,1060.91,44292.5,101430.0,258002.5
-611.71,-491.54,991.37,-56105.0,115027.5,291060.0
-568.52,-493.37,947.82,-156362.5,137637.5,307790.0
-473.85,-496.78,940.38,-236792.5,150937.5,282310.0
-341.11,-497.64,969.17,-279860.0,121607.5,212800.0
-195.2,-492.76,1034.44,-275712.5,49945.0,137340.0
-51.24,-483.12,1136.19,-205327.5,-5355.0,68915.0
84.55,-468.6,1257.7,-69685.0,-2187.5,-1242.5
204.47,-450.67,1364.57,74095.0,24850.0,-73937.5
300.36,-437.37,1430.33,182105.0,25427.5,-141470.0
366.73,-433.83,1450.7,252437.5,4427.5,-199727.5
401.62,-437.49,1430.82,283482.5,-26460.0,-241430.0
405.28,-443.71,1379.58,263585.0,-48825.0,-261747.5
381.74,-448.96,1310.52,201687.5,-57942.5,-262605.0
333.55,-454.33,1237.69,118947.5,-74410.0,-263725.0
249.49,-461.53,1171.08,48825.0,-127592.5,-260172.5
121.27,-470.31,1119.11,-4935.0,-196682.5,-208477.5
-38.31,-478.85,1094.1,-54267.5,-229617.5,-114450.0
-200.93,-483.85,1102.39,-84752.5,-178307.5,-10045.0
-340.5,-482.39,1132.16,-71347.5,-62685.0,72677.5
-446.52,-475.68,1160.46,-14280.0,49542.5,132160.0
-517.52,-468.24,1165.59,54442.5,117932.5,179637.5
-557.54,-462.38,1137.65,67917.5,140227.5,211855.0
-573.4,-456.28,1088.85,27982.5,124057.5,237912.5
-565.84,-449.69,1040.29,-31465.0,99557.5,260330.0
-527.41,-443.71,1008.7,-95672.5,94097.5,276045.0
-449.94,-437.98,1001.62,-146842.5,109987.5,257110.0
-341.84,-429.56,1015.16,-169330.0,95707.5,204522.5
-218.14,-416.63,1048.22,-163030.0,41037.5,150955.0
-88.21,-401.14,1102.27,-140542.5,10080.0,95865.0
40.5,-383.32,1172.18,-97982.5,17675.0,33162.5
160.06,-363.32,1247.69,-28245.0,38797.5,-35367.5
262.79,-345.38,1312.96,73325.0,37590.0,-99225.0
341.84,-335.5,1349.32,158637.5,15697.5,-156345.0
394.06,-336.6,1351.52,201372.5,-10290.0,-208635.0
417.12,-344.53,1324.92,209877.5,-29872.5,-244002.5
412.36,-353.19,1276.12,179497.5,-46637.5,-259805.0
384.18,-362.58,1217.8,116497.5,-53165.0,-268450.0
326.96,-375.64,1164.37,45115.0,-81007.5,-279195.0
221.43,-394.3,1123.62,-4550.0,-154455.0,-264477.5
64.42,-415.29,1103.61,-41317.5,-233327.5,-189070.0
-116.27,-432.86,1113.37,-62230.0,-231840.0,-75687.5
-288.9,-441.4,1149.0,-47775.0,-138407.5,25567.5
-433.71,-441.76,1191.7,10990.0,2065.0,110530.0
-539.73,-441.52,1213.29,94027.5,121835.0,178010.0
-606.46,-443.35,1192.92,128117.5,179602.5,230510.0
-637.45,-445.3,1138.5,91017.5,190540.0,274137.5
-631.59,-447.25,1071.28,15225.0,176102.5,303642.5
