acc_x,acc_y,acc_z,gyro_x,gyro_y,gyro_z
-18.91,363.07,948.18,-2415.0,16677.5,2572.5
-31.23,359.05,955.63,3220.0,19110.0,7420.0
-47.58,352.34,964.78,8592.5,22995.0,16852.5
-67.95,342.21,974.54,13055.0,30572.5,29487.5
-92.84,329.16,982.59,20230.0,34650.0,46147.5
-120.9,314.88,986.98,25655.0,35280.0,66255.0
-148.35,300.61,987.83,27107.5,36277.5,86572.5
-173.97,286.33,984.91,27580.0,36225.0,108167.5
-195.69,273.4,978.32,27160.0,28665.0,130235.0
-209.6,262.42,971.12,25497.5,21140.0,145932.5
-214.96,251.69,965.02,22662.5,24675.0,157605.0
-214.48,240.22,958.19,20072.5,31465.0,168997.5
-209.35,229.6,949.53,18095.0,33635.0,181282.5
-197.15,221.92,939.64,16607.5,30257.5,190820.0
-175.19,218.26,929.52,14770.0,27877.5,194215.0
-141.76,220.45,919.64,10150.0,29487.5,190715.0
-95.89,228.14,911.1,1365.0,34055.0,177310.0
-37.94,240.71,904.26,-4847.5,35962.5,155312.5
28.79,258.15,899.38,-11112.5,31885.0,124845.0
100.28,279.01,898.65,-13317.5,20212.5,91455.0
174.22,302.19,903.41,-6457.5,7367.5,57890.0
248.15,326.23,910.61,3430.0,1400.0,23590.0
318.66,349.77,916.71,8907.5,1312.5,-8767.5
383.69,371.73,920.12,12075.0,1470.0,-40075.0
439.69,390.4,920.12,10360.0,665.0,-73115.0
482.88,404.06,916.59,9852.5,-2502.5,-103810.0
513.86,411.02,910.24,5687.5,-4847.5,-128152.5
534.48,411.87,903.17,-1365.0,-2870.0,-147735.0
545.71,407.72,896.46,-3710.0,-2852.5,-163975.0
548.76,400.65,888.53,-1050.0,-8767.5,-179987.5
545.46,391.5,878.89,-1610.0,-16730.0,-197277.5
536.07,379.66,869.74,-3465.0,-24430.0,-216825.0
516.79,362.83,863.39,-9502.5,-28752.5,-234167.5
482.63,339.4,861.81,-19302.5,-26932.5,-238297.5
432.86,311.1,865.47,-27562.5,-23187.5,-230965.0
367.95,279.62,874.25,-31202.5,-15470.0,-218995.0
285.24,245.22,887.79,-32392.5,-910.0,-202667.5
182.39,206.3,904.26,-28350.0,1172.5,-165725.0
66.37,164.21,921.59,-18777.5,-5197.5,-105490.0
-48.92,124.81,938.91,-3080.0,-9170.0,-33600.0
-150.3,92.6,953.8,10657.5,-5897.5,33267.5
-231.56,69.66,962.82,20212.5,1155.0,84507.5
-292.43,53.92,964.04,24850.0,1155.0,123235.0
-334.28,43.31,958.19,27667.5,-9660.0,153055.0
-358.68,36.23,948.67,26950.0,-21210.0,174160.0
-368.2,30.99,938.55,24447.5,-26477.5,190102.5
-365.51,26.23,929.52,24500.0,-25935.0,203752.5
-352.34,22.33,920.12,28315.0,-27440.0,215600.0
-329.4,21.47,909.39,30292.5,-30695.0,224630.0
-294.02,24.89,899.38,26302.5,-29137.5,226625.0
-243.51,33.18,892.19,19512.5,-20457.5,218540.0
-177.02,46.97,887.18,11042.5,-7665.0,202685.0
-96.26,67.83,884.99,2537.5,3972.5,177922.5
-5.12,96.5,886.7,-3780.0,15260.0,143885.0
93.45,132.37,891.58,-3010.0,25795.0,103180.0
194.71,173.48,896.33,2292.5,29452.5,54355.0
289.38,215.45,898.04,7350.0,18707.5,1470.0
371.0,252.91,897.68,13685.0,-3920.0,-42682.5
440.54,283.53,895.97,21700.0,-18287.5,-75915.0
499.35,308.17,890.97,23765.0,-19022.5,-106802.5
546.44,326.84,881.57,18585.0,-14385.0,-138110.0
580.84,338.67,869.37,7455.0,-6667.5,-166407.5
600.48,342.82,856.44,-6300.0,-1960.0,-190260.0
604.63,339.28,845.46,-15277.5,-6020.0,-205275.0
596.09,330.5,837.41,-16065.0,-16642.5,-213395.0
576.08,318.18,831.8,-18375.0,-22995.0,-220622.5
542.05,301.1,830.09,-23887.5,-22802.5,-220500.0
494.47,280.48,832.28,-29067.5,-21525.0,-210910.0
437.0,258.15,838.51,-34072.5,-10727.5,-196595.0
368.93,233.87,848.39,-40197.5,2327.5,-185202.5
285.97,206.3,860.71,-41737.5,3430.0,-169592.5
189.95,175.31,876.2,-32917.5,-11007.5,-139072.5
87.72,142.37,894.87,-17045.0,-22540.0,-92260.0
-13.54,110.29,914.76,-1977.5,-22312.5,-35560.0
-106.63,81.86,933.67,12722.5,-15452.5,24885.0
-183.73,59.17,948.06,27475.0,-4550.0,81480.0
-240.22,43.68,954.28,34860.0,1715.0,124862.5
-276.82,34.04,953.92,34492.5,2450.0,153720.0
-297.56,27.82,949.89,33302.5,70.0,171902.5
-306.83,22.81,942.82,33547.5,-7315.0,186830.0
-305.49,18.79,934.64,34405.0,-15592.5,201705.0
-292.56,16.47,926.83,32252.5,-13632.5,213237.5
-267.67,17.08,920.37,27142.5,-3797.5,221007.5
-230.7,21.59,915.24,21752.5,9940.0,224385.0
-178.85,32.45,909.88,14525.0,25882.5,224332.5
-108.34,52.09,903.65,4077.5,40600.0,210682.5
-22.2,81.25,897.92,-8505.0,48527.5,178710.0
72.22,118.1,894.38,-15785.0,48037.5,134960.0
169.09,159.45,893.41,-16887.5,39462.5,89495.0
265.96,203.01,895.72,-9922.5,26302.5,45972.5
359.29,245.83,899.02,1225.0,16380.0,-700.0
443.35,283.89,899.38,12547.5,8645.0,-45115.0
514.96,315.37,894.63,19145.0,3587.5,-85505.0
571.57,339.4,884.87,19757.5,-2135.0,-125300.0
610.0,355.02,873.03,16415.0,-15032.5,-160160.0
631.47,361.61,862.3,12197.5,-30257.5,-186322.5
639.52,359.9,853.51,7857.5,-40057.5,-201792.5
636.23,351.97,845.83,-2135.0,-37835.0,-212730.0
620.13,338.06,840.34,-18917.5,-26775.0,-218942.5
591.21,318.79,838.38,-33600.0,-14735.0,-218960.0
550.59,295.73,840.7,-40617.5,-7612.5,-217315.0
495.81,268.16,846.56,-41912.5,-7105.0,-216457.5
420.17,234.85,855.34,-43977.5,-13317.5,-208547.5
322.93,197.88,868.76,-39305.0,-29330.0,-178885.0
215.7,160.67,887.67,-23047.5,-39585.0,-125510.0
112.12,126.88,908.66,-9992.5,-26215.0,-65275.0
16.84,98.58,927.93,-7542.5,-1540.0,-16240.0
-71.13,74.91,942.94,-2380.0,7332.5,26617.5
-150.18,54.78,953.55,13335.0,-2765.0,70402.5
-214.96,38.19,959.65,28297.5,-14315.0,113977.5
-262.06,24.64,962.34,35560.0,-14857.5,154035.0
-291.82,13.66,962.09,37712.5,-5162.5,187862.5
-305.98,4.88,958.92,38622.5,1750.0,214952.5
-305.98,-1.95,952.7,39655.0,3062.5,235305.0
-292.56,-6.71,944.16,39147.5,-1102.5,248622.5
-267.67,-9.15,935.5,37415.0,-8645.0,256550.0
-230.58,-8.17,928.66,38762.5,-14700.0,260085.0
-174.7,-1.34,924.52,41055.0,-13037.5,259717.5
-88.08,17.08,924.52,43400.0,5162.5,241272.5
29.04,49.41,925.74,39270.0,46445.0,187530.0
156.16,90.89,921.34,22330.0,72940.0,118685.0
273.52,137.62,912.32,9082.5,53935.0,56525.0
378.2,185.2,903.78,14490.0,12442.5,1347.5
471.53,227.53,895.48,24272.5,-10657.5,-46847.5
552.29,261.81,884.62,21770.0,-3377.5,-90072.5
616.1,286.94,869.98,9415.0,12425.0,-128065.0
661.85,303.29,853.02,-4480.0,18410.0,-160317.5
691.37,312.44,836.92,-14612.5,14017.5,-192132.5
703.57,313.91,823.74,-20230.0,1470.0,-220377.5
697.35,307.32,813.5,-22697.5,-11760.0,-240765.0
671.24,293.04,806.05,-27667.5,-20405.0,-250040.0
625.49,272.91,802.39,-28717.5,-29365.0,-244037.5
565.1,250.1,802.52,-25672.5,-32812.5,-226275.0
493.61,226.19,805.93,-25725.0,-28490.0,-200865.0
413.46,202.03,813.37,-28507.5,-21280.0,-170432.5
325.5,177.39,823.62,-36015.0,-8575.0,-139265.0
229.36,152.62,836.43,-42332.5,-4252.5,-106820.0
127.86,128.34,852.54,-38377.5,-9677.5,-68005.0
27.82,104.92,871.93,-26250.0,-13387.5,-20265.0
-62.95,84.91,892.92,-10780.0,-10412.5,31290.0
-139.45,70.52,911.95,5005.0,-2607.5,75512.5
-200.81,60.51,925.25,15820.0,2765.0,110705.0
-247.9,53.07,931.59,23730.0,-927.5,141277.5
-282.06,46.6,931.96,29312.5,-8732.5,169767.5
-304.15,39.04,928.66,33040.0,-13632.5,198590.0
-311.59,30.74,922.2,35000.0,-13300.0,225172.5
-303.54,23.55,912.68,32112.5,-8960.0,239137.5
-284.26,17.08,899.75,25620.0,-10850.0,247782.5
-253.27,13.66,887.79,20755.0,-25532.5,259770.0
-200.32,16.1,883.28,26092.5,-37065.0,263270.0
-114.68,26.6,886.09,35210.0,-26600.0,249375.0
7.56,51.12,890.72,37782.5,7455.0,204365.0
150.06,89.55,889.87,22540.0,41982.5,128327.5
285.72,134.69,882.55,3447.5,37170.0,49262.5
401.38,178.12,875.23,-5617.5,8855.0,-19722.5
496.66,213.5,873.15,-1487.5,-4252.5,-71662.5
576.08,241.32,872.54,6230.0,5530.0,-111107.5
642.09,264.01,869.86,5477.5,29312.5,-155575.0
691.86,279.14,865.22,507.5,51380.0,-207987.5
719.07,283.28,857.42,-4795.0,64505.0,-253172.5
720.04,276.09,846.44,-8312.5,64050.0,-282800.0
697.35,260.47,834.6,-10115.0,51975.0,-296240.0
656.85,239.12,823.01,-9537.5,36890.0,-298497.5
600.36,214.23,810.57,-13825.0,25077.5,-293055.0
525.33,186.42,798.12,-26512.5,12687.5,-278005.0
431.88,156.04,789.34,-40057.5,-525.0,-246610.0
324.28,124.2,788.61,-48457.5,-9432.5,-197172.5
209.11,89.91,796.29,-44415.0,-12355.0,-136342.5
92.96,54.29,808.98,-32690.0,-9800.0,-69860.0
-18.3,20.74,821.55,-19775.0,-7367.5,-3552.5
-120.17,-8.66,830.33,-11760.0,-11672.5,62247.5
-206.42,-33.43,836.19,-3500.0,-25970.0,125492.5
-271.08,-53.07,840.82,5057.5,-41930.0,179585.0
-312.56,-67.95,846.44,12862.5,-48842.5,221690.0
-331.96,-78.57,852.17,19477.5,-48580.0,251615.0
-331.47,-86.25,856.44,23432.5,-45430.0,272020.0
-314.64,-91.01,858.64,27790.0,-46550.0,287000.0
-283.16,-90.4,860.34,32637.5,-50715.0,293597.5
-237.29,-83.57,862.17,35577.5,-53235.0,287332.5
-175.31,-70.39,864.98,35980.0,-53532.5,268135.0
-88.69,-47.82,869.13,38570.0,-34895.0,231577.5
22.45,-15.37,869.37,29155.0,16397.5,173162.5
138.35,23.91,864.25,2310.0,60707.5,109480.0
244.61,67.95,860.83,-12810.0,52097.5,56700.0
344.41,113.83,862.3,-87.5,20860.0,8347.5
438.59,157.99,864.13,17797.5,1522.5,-45605.0
520.45,195.81,862.54,27825.0,-8767.5,-98927.5
585.6,224.72,856.81,29417.5,-13142.5,-144760.0
633.67,244.73,846.07,22260.0,-10867.5,-183260.0
664.9,256.93,831.31,4725.0,-4760.0,-219572.5
680.52,260.96,815.45,-20282.5,3220.0,-255307.5
677.47,254.25,803.0,-41790.0,10272.5,-285740.0
653.55,236.8,797.03,-43487.5,10360.0,-298077.5
612.44,212.89,795.68,-44082.5,7542.5,-299722.5
557.17,184.34,796.9,-43120.0,6667.5,-289520.0
485.56,151.4,800.32,-50207.5,16030.0,-268607.5
393.69,113.95,807.88,-61670.0,19547.5,-234132.5
281.33,71.98,823.99,-59010.0,2800.0,-180862.5
155.31,28.06,849.61,-36820.0,-17150.0,-106907.5
32.09,-14.15,879.74,-1540.0,-28315.0,-20212.5
-74.91,-50.75,905.73,26057.5,-21105.0,60270.0
-160.06,-78.32,921.71,34212.5,-7717.5,125842.5
-223.14,-96.62,927.08,32952.5,-4182.5,173967.5
-266.94,-108.21,924.76,30835.0,-17850.0,209965.0
-293.78,-115.41,920.25,35262.5,-39462.5,239242.5
-304.27,-120.78,916.46,42910.0,-51940.0,261695.0
-297.68,-123.95,911.34,52255.0,-53392.5,280647.5
-272.43,-122.37,905.24,50242.5,-37310.0,287542.5
-230.09,-118.1,901.21,40180.0,962.5,288312.5
-169.58,-108.34,895.85,30660.0,25007.5,290360.0
-87.47,-86.13,886.94,13265.0,32585.0,263917.5
10.25,-53.19,880.35,-5565.0,28910.0,216037.5
121.39,-11.71,880.72,-4007.5,23170.0,158462.5
239.61,35.5,883.77,5512.5,30152.5,81305.0
346.97,82.72,884.99,12110.0,24937.5,11410.0
437.86,126.64,885.35,21525.0,9677.5,-43785.0
517.04,165.55,885.48,28997.5,3185.0,-92662.5
585.84,199.35,882.79,29645.0,13212.5,-145180.0
637.57,225.09,874.5,23765.0,26075.0,-199412.5
666.24,239.12,861.08,15995.0,25095.0,-240502.5
674.17,243.02,844.97,8190.0,14787.5,-264530.0
669.05,240.34,828.87,-13352.5,17517.5,-279335.0
653.07,230.46,817.4,-35717.5,32515.0,-294192.5
618.3,211.06,810.69,-47250.0,45395.0,-299810.0
560.47,184.71,807.64,-44345.0,40145.0,-287647.5
486.29,157.62,807.15,-32585.0,24202.5,-265055.0
399.67,127.86,807.52,-27195.0,12180.0,-241710.0
302.07,94.18,810.2,-35997.5,7017.5,-203595.0
195.69,54.9,814.96,-44257.5,-12582.5,-162960.0
80.52,7.93,827.65,-33022.5,-45850.0,-102147.5
-36.84,-41.85,848.14,-9537.5,-53620.0,-21000.0
-145.06,-89.79,867.05,14385.0,-48457.5,70997.5
-229.85,-127.98,879.99,31710.0,-46812.5,154507.5
-284.99,-152.01,886.33,42875.0,-47862.5,209457.5
-315.86,-164.7,889.01,47267.5,-45990.0,245227.5
-327.94,-170.31,889.01,48597.5,-40897.5,272492.5
-323.18,-172.02,886.94,47687.5,-38132.5,300160.0
-297.92,-169.7,884.38,44695.0,-37222.5,323295.0
-247.66,-161.53,882.55,46707.5,-38167.5,331887.5
-166.65,-141.15,882.67,52692.5,-31482.5,315910.0
-51.24,-100.77,884.74,54442.5,1750.0,253575.0
78.2,-45.02,882.91,42805.0,36365.0,160877.5
192.27,13.18,875.11,23730.0,30065.0,79870.0
287.8,68.56,867.42,21910.0,-4427.5,21822.5
375.88,120.78,862.42,29032.5,-19600.0,-27947.5
458.72,169.21,856.81,25235.0,-7507.5,-80132.5
529.6,210.82,848.14,14595.0,6667.5,-135642.5
581.33,241.07,837.16,3535.0,15277.5,-184065.0
610.73,258.03,824.48,-1872.5,14472.5,-218697.5
618.66,264.37,811.54,-5425.0,2870.0,-241290.0
609.39,263.28,801.05,-5197.5,-18917.5,-252420.0
587.67,257.3,794.22,-3675.0,-34090.0,-251335.0
560.22,249.12,789.1,-9275.0,-26215.0,-242602.5
528.87,239.0,786.17,-32095.0,1400.0,-244072.5
485.07,221.67,788.36,-52902.5,33127.5,-251142.5
418.7,191.91,794.22,-65310.0,48755.0,-249095.0
322.45,148.96,801.66,-64137.5,36277.5,-221742.5
199.47,98.33,811.54,-52850.0,-6580.0,-155452.5
70.39,47.58,827.04,-25917.5,-55510.0,-67252.5
-45.51,2.68,847.9,3745.0,-81865.0,13755.0
-142.25,-33.67,871.57,20230.0,-71242.5,81060.0
-218.62,-62.95,894.14,31570.0,-41247.5,140315.0
-274.99,-85.4,910.85,42297.5,-18952.5,195160.0
-312.32,-102.24,921.22,53760.0,-12565.0,241010.0
-331.72,-115.41,926.59,64557.5,-15347.5,282292.5
-332.33,-124.44,927.57,75950.0,-23450.0,315822.5
-313.66,-130.17,925.25,86432.5,-34737.5,343280.0
-273.04,-131.88,921.34,98717.5,-45447.5,361952.5
-202.15,-125.29,916.46,106067.5,-40460.0,355040.0
-100.16,-104.68,910.12,105647.5,-10867.5,310817.5
17.93,-69.42,899.02,95165.0,19705.0,245280.0
141.4,-20.74,882.79,80220.0,38605.0,169260.0
260.35,35.99,860.71,68635.0,39567.5,86240.0
361.61,92.23,834.48,46585.0,21035.0,7945.0
443.59,141.4,812.28,22452.5,5267.5,-49280.0
513.74,181.78,796.66,14087.5,7070.0,-83335.0
578.77,218.99,780.31,12705.0,20037.5,-116445.0
635.62,253.27,757.13,-210.0,28945.0,-164937.5
676.73,280.11,729.07,-26390.0,22067.5,-216422.5
698.08,294.87,702.11,-52255.0,7437.5,-258685.0
700.28,296.95,680.64,-71102.5,-9415.0,-282292.5
686.74,289.99,673.2,-77892.5,-23152.5,-293895.0
661.61,277.79,677.34,-68722.5,-21525.0,-302312.5
624.15,259.37,685.76,-70420.0,-665.0,-312357.5
571.2,232.9,698.21,-73832.5,23082.5,-313757.5
500.81,198.01,712.72,-72222.5,37905.0,-301262.5
405.65,155.92,727.12,-67095.0,42525.0,-263252.5
286.58,110.29,741.76,-60025.0,28507.5,-187232.5
159.09,67.59,758.35,-42542.5,3535.0,-90842.5
41.97,33.06,777.87,-17937.5,-21280.0,-2485.0
-54.66,7.56,798.37,8277.5,-32830.0,65432.5
-132.61,-12.44,815.81,22557.5,-29120.0,120417.5
-195.81,-29.89,828.87,27177.5,-21805.0,175262.5
-243.51,-45.02,838.38,29120.0,-18690.0,229670.0
-272.3,-57.1,845.83,34142.5,-21402.5,278337.5
-280.6,-63.68,852.78,44450.0,-25672.5,314020.0
-271.08,-65.15,859.12,52097.5,-19722.5,335755.0
-247.17,-64.54,863.64,56962.5,-9712.5,353867.5
-203.62,-62.46,865.96,63087.5,-7875.0,367675.0
-126.39,-52.22,867.79,71225.0,-2712.5,354830.0
-4.88,-17.2,867.54,75337.5,19425.0,284672.5
140.54,42.21,855.71,59482.5,52657.5,156467.5
265.84,104.68,830.7,10797.5,53375.0,33512.5
355.26,157.26,812.28,-22522.5,8312.5,-39427.5
426.51,199.84,810.93,-4480.0,-27247.5,-76212.5
496.17,238.02,814.23,20107.5,-23100.0,-117092.5
559.49,271.08,810.08,18445.0,6125.0,-175245.0
604.51,293.17,799.47,-857.5,23485.0,-225067.5
628.06,304.02,789.1,-11917.5,15872.5,-259175.0
631.47,305.61,781.65,-12932.5,-3447.5,-280787.5
619.88,300.24,777.75,-8925.0,-24080.0,-290552.5
597.19,289.87,776.53,-6282.5,-28577.5,-297692.5
561.69,274.26,775.68,-15785.0,-17675.0,-303642.5
511.18,252.54,774.58,-32532.5,490.0,-301507.5
443.96,224.6,775.07,-45727.5,12267.5,-285197.5
360.39,192.15,779.82,-45937.5,7577.5,-252542.5
261.81,156.89,787.75,-34405.0,-5565.0,-201565.0
154.09,121.27,796.66,-18987.5,-22085.0,-133630.0
45.87,89.06,804.1,-5810.0,-34545.0,-58432.5
-57.34,61.37,809.35,-6195.0,-32725.0,16310.0
-153.35,35.87,812.03,-14350.0,-26652.5,94115.0
-236.19,11.59,813.13,-15242.5,-40845.0,177135.0
-294.75,-8.66,816.06,-4200.0,-64925.0,247782.5
-324.76,-24.03,822.04,12757.5,-74095.0,294980.0
-330.86,-35.99,827.04,23852.5,-66762.5,326427.5
-319.76,-45.51,827.65,26145.0,-57487.5,349930.0
-295.61,-52.09,825.94,25340.0,-58992.5,369880.0
-250.59,-51.36,829.36,32462.5,-63332.5,374395.0
-177.39,-41.24,839.85,39917.5,-23047.5,346500.0
-74.79,-20.74,849.97,26792.5,59727.5,298392.5
53.92,20.98,861.56,-5092.5,126262.5,205012.5
178.73,65.03,874.98,3220.0,55405.0,104125.0
278.28,104.68,877.06,43540.0,-13895.0,49875.0
360.02,150.55,868.64,37747.5,-7805.0,-23660.0
429.44,188.98,865.59,13895.0,2047.5,-88427.5
491.9,218.62,871.45,15890.0,27317.5,-136377.5
546.32,242.78,873.89,20790.0,57610.0,-189367.5
580.96,257.66,864.74,13930.0,67742.5,-238402.5
589.02,263.03,846.56,5582.5,48107.5,-262797.5
578.16,263.4,824.72,-3080.0,17220.0,-267417.5
556.32,261.08,803.37,-14787.5,-8172.5,-269745.0
526.55,254.86,784.46,-33547.5,-22487.5,-275467.5
488.49,241.56,771.16,-55405.0,-19652.5,-282695.0
439.32,219.48,766.28,-71242.5,-7385.0,-284340.0
377.47,190.2,768.84,-73937.5,-1260.0,-272860.0
302.56,154.94,775.68,-67427.5,752.5,-244247.5
213.99,116.63,784.83,-59727.5,-1190.0,-196927.5
113.22,79.91,797.03,-53445.0,-10622.5,-132912.5
3.17,46.36,814.35,-39865.0,-25690.0,-52097.5
-107.36,14.27,836.31,-14210.0,-39882.5,46340.0
-202.76,-17.69,858.39,17605.0,-49017.5,148802.5
-270.23,-48.31,876.69,42035.0,-45797.5,238262.5
-306.46,-74.66,891.82,58345.0,-30012.5,303275.0
-314.76,-95.28,902.92,71242.5,-9047.5,345047.5
-302.19,-108.82,907.8,76177.5,6860.0,366170.0
-274.74,-114.92,908.05,78872.5,3710.0,372942.5
-236.92,-116.75,906.09,85872.5,-7525.0,375147.5
-186.66,-115.41,902.92,94657.5,-16712.5,375392.5
-110.53,-105.9,901.34,105770.0,-14927.5,356860.0
0.98,-77.59,901.58,115237.5,17902.5,297272.5
135.91,-26.23,891.21,110407.5,59237.5,198852.5
262.3,35.38,861.08,62632.5,54302.5,84000.0
359.9,92.72,825.57,-577.5,13212.5,-8347.5
435.54,139.57,804.47,-31850.0,-25497.5,-68425.0
503.13,177.39,798.86,-30415.0,-34352.5,-113977.5
565.71,209.84,797.88,-25585.0,-15837.5,-167650.0
617.32,234.85,795.07,-33005.0,2117.5,-228602.5
651.24,247.9,790.56,-38185.0,7052.5,-281330.0
665.63,248.15,784.22,-38395.0,2765.0,-315262.5
661.24,238.14,775.8,-40932.5,-4322.5,-333497.5
639.77,221.43,765.92,-53585.0,-13352.5,-341075.0
605.12,200.45,758.35,-72607.5,-19145.0,-346202.5
557.3,173.48,757.13,-86152.5,-17867.5,-346325.0
493.86,140.18,763.72,-87202.5,-21927.5,-330102.5
414.92,103.21,777.38,-70420.0,-35192.5,-296677.5
320.74,64.05,795.32,-47425.0,-51030.0,-246032.5
213.26,25.25,816.55,-29837.5,-56245.0,-173845.0
99.55,-11.1,840.58,-16870.0,-46235.0,-83020.0
-10.37,-43.31,865.71,-5040.0,-25060.0,12862.5
-108.09,-71.0,889.5,5180.0,-6440.0,102637.5
-185.68,-96.14,909.88,19880.0,2555.0,183540.0
-238.63,-118.22,924.88,38465.0,5442.5,249182.5
-269.62,-136.88,932.32,56927.5,-4375.0,300142.5
-282.06,-150.43,933.18,77437.5,-30992.5,340900.0
-275.11,-156.89,930.86,98595.0,-54687.5,364420.0
-250.59,-158.84,927.81,106067.5,-47705.0,375462.5
-212.77,-157.87,924.52,101535.0,-19232.5,379820.0
-163.11,-156.77,920.37,97422.5,4515.0,381605.0
-90.77,-150.67,918.66,101920.0,16030.0,371752.5
19.28,-126.64,918.54,103617.5,40180.0,314667.5
156.04,-80.15,908.9,90912.5,73377.5,214375.0
285.36,-19.4,882.55,61530.0,76405.0,103512.5
384.79,41.6,848.02,17027.5,32445.0,7420.0
461.53,93.33,823.99,-17815.0,-10272.5,-62895.0
530.58,134.57,815.33,-22365.0,-14735.0,-113365.0
595.12,169.7,812.15,-18270.0,560.0,-166932.5
647.09,197.76,807.15,-21087.5,14140.0,-228322.5
681.61,214.72,798.12,-24080.0,12705.0,-279790.0
699.55,219.97,787.27,-26075.0,1750.0,-320075.0
700.77,214.23,776.53,-27282.5,-11200.0,-348215.0
683.69,198.74,764.45,-35245.0,-25427.5,-366310.0
645.26,173.61,752.25,-53445.0,-36837.5,-371735.0
585.97,141.76,745.91,-68845.0,-57190.0,-359205.0
511.06,107.85,749.93,-71662.5,-79975.0,-329805.0
424.32,73.08,763.96,-69335.0,-81235.0,-287910.0
324.4,36.6,785.68,-70630.0,-59412.5,-228795.0
211.55,0.24,813.5,-64592.5,-38220.0,-145040.0
94.18,-32.21,845.09,-38027.5,-31675.0,-42735.0
-12.69,-58.07,875.23,2730.0,-26670.0,60235.0
-99.06,-77.84,896.46,27177.5,-18270.0,147945.0
-163.85,-93.09,909.63,38675.0,-13055.0,221270.0
-206.42,-106.63,918.29,52692.5,-10465.0,282712.5
-225.46,-117.49,922.32,69475.0,-14857.5,328842.5
-220.7,-123.46,922.56,81760.0,-10237.5,352975.0
-197.64,-125.17,919.88,81165.0,11147.5,358680.0
-163.36,-123.71,915.24,73045.0,33407.5,354707.5
-121.88,-119.68,909.63,64330.0,41457.5,350157.5
-63.68,-109.56,905.97,64470.0,29207.5,338345.0
30.62,-82.47,903.04,71470.0,19005.0,289310.0
162.14,-30.99,892.06,60077.5,39602.5,189297.5
293.78,31.84,867.18,15750.0,54740.0,64347.5
389.67,87.84,844.48,-35752.5,18445.0,-29680.0
458.23,132.13,841.56,-39707.5,-33057.5,-76615.0
526.31,170.43,850.34,-16292.5,-37765.0,-111125.0
596.58,206.18,854.73,-8925.0,-1680.0,-166337.5
654.9,233.63,846.92,-26320.0,30415.0,-230020.0
692.72,247.54,830.33,-47005.0,30135.0,-283010.0
709.31,248.39,814.11,-53217.5,-1785.0,-318045.0
710.41,240.46,804.1,-44152.5,-38062.5,-340270.0
697.6,223.38,796.9,-41195.0,-48580.0,-361217.5
664.05,194.47,791.29,-56087.5,-43365.0,-369967.5
606.83,156.65,793.0,-67130.0,-36295.0,-353937.5
530.7,114.8,804.22,-65975.0,-22120.0,-320232.5
435.91,69.78,820.94,-61040.0,-1470.0,-271792.5
322.2,22.45,839.6,-51345.0,507.5,-195527.5
199.35,-22.08,860.71,-25620.0,-18340.0,-97755.0
83.94,-60.88,882.18,5390.0,-32445.0,2502.5
-13.42,-91.99,899.14,25462.5,-34527.5,89950.0
-94.79,-116.75,910.85,31395.0,-28770.0,165270.0
-162.14,-138.84,920.37,41860.0,-31080.0,245280.0
-206.67,-156.65,929.64,63875.0,-39970.0,320985.0
-221.55,-167.87,938.18,87342.5,-33617.5,371035.0
-210.69,-176.29,943.3,95007.5,-3325.0,399035.0
-181.66,-184.95,943.18,93852.5,23660.0,420175.0
-137.01,-192.52,940.13,97842.5,26372.5,432425.0
-71.37,-193.74,937.33,106977.5,26092.5,425477.5
30.38,-179.71,938.3,107012.5,49980.0,376477.5
165.8,-142.62,935.37,111457.5,86747.5,278460.0
300.12,-84.91,913.54,93835.0,100135.0,156012.5
404.92,-20.74,881.45,51380.0,39812.5,33390.0
480.68,40.5,856.93,27072.5,-31045.0,-57942.5
542.41,90.04,842.17,4707.5,-28420.0,-100940.0
600.48,126.51,832.16,-16502.5,5582.5,-138862.5
650.26,156.89,820.94,-38605.0,43680.0,-184765.0
684.05,180.07,809.1,-54582.5,48195.0,-231822.5
703.21,193.98,797.03,-53130.0,33792.5,-271075.0
713.09,200.57,783.24,-58607.5,19162.5,-307667.5
713.09,198.01,770.67,-68372.5,6370.0,-343420.0
698.08,183.61,761.28,-80360.0,1662.5,-367780.0
666.61,157.5,756.77,-93065.0,5845.0,-379592.5
616.83,122.24,759.33,-94587.5,8872.5,-379557.5
546.32,81.25,769.09,-84857.5,4935.0,-361987.5
455.55,37.58,786.9,-69667.5,-3150.0,-316750.0
345.38,-10.0,811.3,-39795.0,-9117.5,-253050.0
219.97,-56.49,837.16,-4060.0,-19127.5,-155505.0
96.38,-93.82,859.61,15225.0,-17990.0,-52202.5
-10.98,-125.66,875.96,13055.0,4340.0,42945.0
-98.33,-152.01,886.33,8855.0,19407.5,123532.5
-166.29,-171.04,894.99,14000.0,12250.0,183645.0
-220.09,-188.25,903.78,31867.5,-1522.5,238455.0
-260.59,-206.91,911.58,62177.5,-26477.5,295015.0
-282.8,-224.72,913.9,106820.0,-49122.5,344785.0
-282.92,-236.68,906.22,128467.5,-56665.0,384055.0
-259.86,-238.63,890.6,118160.0,-43452.5,401152.5
-218.38,-233.14,870.47,84770.0,-18270.0,399770.0
-165.8,-223.87,852.54,54127.5,-30012.5,394012.5
-91.13,-204.84,848.27,54932.5,-50102.5,369967.5
26.72,-165.55,856.93,72415.0,-10570.0,298812.5
175.56,-106.14,858.76,72450.0,75600.0,186620.0
313.17,-37.21,840.09,43610.0,95690.0,66797.5
414.56,30.26,810.57,-5162.5,50085.0,-33617.5
490.93,86.86,791.29,-44520.0,5005.0,-102585.0
561.57,133.96,792.88,-48300.0,-1942.5,-161157.5
624.15,170.68,802.03,-19862.5,11777.5,-219957.5
666.36,192.52,801.66,-5757.5,18410.0,-265475.0
688.32,202.52,790.07,-8032.5,11497.5,-295575.0
692.59,204.35,775.19,-18287.5,-12967.5,-320127.5
680.64,198.86,762.74,-26495.0,-38902.5,-333760.0
654.65,186.05,755.18,-32357.5,-49822.5,-334512.5
615.86,166.9,752.74,-39025.0,-51397.5,-325447.5
566.08,143.23,754.69,-44712.5,-47442.5,-315595.0
502.03,114.92,760.3,-47110.0,-43977.5,-298060.0
419.8,82.59,770.55,-47740.0,-45605.0,-262412.5
321.35,47.21,786.9,-41772.5,-51922.5,-201827.5
213.99,11.59,808.01,-35245.0,-53830.0,-122535.0
106.38,-21.23,833.26,-30030.0,-42122.5,-35507.5
6.59,-50.51,861.56,-21315.0,-21910.0,51607.5
-79.3,-76.86,887.92,-3780.0,-11042.5,133595.0
-148.11,-100.04,910.36,19407.5,-15750.0,208915.0
-194.22,-118.1,930.62,52640.0,-23502.5,271862.5
-215.21,-131.52,946.11,78575.0,-15907.5,314265.0
-214.48,-141.4,953.92,92802.5,-6352.5,344172.5
-195.44,-145.3,955.26,98787.5,2502.5,362967.5
-160.92,-140.67,953.92,99995.0,11060.0,366450.0
-113.95,-130.05,953.8,104002.5,18812.5,356090.0
-54.17,-117.36,954.28,115290.0,22225.0,339290.0
27.57,-98.58,951.36,125405.0,30782.5,312637.5
139.69,-63.2,941.35,127540.0,46935.0,251790.0
267.42,-8.66,918.42,119875.0,52850.0,151812.5
380.88,56.49,877.42,81235.0,37940.0,47477.5
465.8,120.05,830.09,14157.5,7787.5,-47967.5
528.87,170.56,794.83,-34107.5,-22102.5,-117180.0
586.82,211.06,774.46,-49787.5,-21105.0,-170380.0
643.67,245.71,759.57,-61390.0,9152.5,-240257.5
685.64,266.08,742.61,-84455.0,35560.0,-311010.0
702.72,265.47,724.68,-107940.0,45622.5,-352817.5
696.25,248.64,709.19,-119630.0,38167.5,-365120.0
671.73,223.02,699.91,-120785.0,18707.5,-368935.0
630.5,190.81,699.91,-114800.0,1732.5,-368672.5
569.5,152.87,709.55,-101780.0,-8277.5,-355705.0
488.0,112.0,726.51,-84787.5,-7857.5,-323662.5
388.57,68.81,747.74,-69072.5,-7000.0,-267925.0
274.13,23.91,772.26,-47442.5,-17027.5,-186042.5
150.79,-18.79,799.22,-25655.0,-23047.5,-87482.5
28.91,-57.34,827.16,-7087.5,-17605.0,19267.5
-76.86,-92.48,851.19,11410.0,-8312.5,122062.5
-157.5,-123.59,868.76,23485.0,-5022.5,205380.0
-213.5,-150.55,882.91,34545.0,-5355.0,270182.5
-247.9,-173.48,894.75,47215.0,-1575.0,321860.0
-263.52,-192.03,902.56,55265.0,6177.5,365487.5
-261.45,-205.2,905.0,67987.5,2485.0,396812.5
-243.27,-213.01,900.85,75915.0,-8032.5,412370.0
-209.96,-215.21,891.09,88217.5,-41615.0,417550.0
-154.57,-207.52,883.16,98665.0,-75040.0,403235.0
-58.32,-184.46,885.48,113802.5,-62195.0,350875.0
75.03,-142.01,887.18,125615.0,5670.0,257705.0
209.6,-84.06,867.91,101290.0,57347.5,150500.0
317.69,-20.5,830.7,35420.0,38570.0,54477.5
402.84,37.58,799.83,-16712.5,-12565.0,-18375.0
482.02,87.72,788.36,-23117.5,-30502.5,-77665.0
559.13,132.13,783.73,-19110.0,-11725.0,-141522.5
627.57,170.31,775.8,-34440.0,17570.0,-213535.0
679.54,197.88,765.92,-52132.5,31185.0,-286195.0
712.72,209.23,754.81,-62597.5,22470.0,-345940.0
729.8,205.2,745.05,-65485.0,6492.5,-390827.5
728.58,186.29,738.71,-66955.0,-4235.0,-423920.0
702.48,152.87,734.68,-74742.5,-9275.0,-435837.5
647.33,110.17,735.66,-81042.5,-13947.5,-421347.5
565.47,64.54,746.27,-68915.0,-21735.0,-379960.0
461.4,19.28,763.23,-48632.5,-34685.0,-312550.0
341.6,-23.55,783.36,-31167.5,-48597.5,-222880.0
217.16,-62.95,805.81,-14122.5,-51362.5,-118475.0
99.31,-98.33,827.04,-3605.0,-37082.5,-14945.0
-7.81,-129.93,844.12,-3097.5,-23380.0,82512.5
-99.67,-157.87,859.12,7455.0,-28857.5,176155.0
-168.6,-180.93,874.62,28245.0,-36732.5,256217.5
-212.89,-199.59,889.87,48422.5,-29907.5,318220.0
-233.39,-214.23,901.82,64365.0,-18287.5,364350.0
-231.92,-224.11,908.05,78977.5,-12635.0,392280.0
-212.52,-229.85,908.05,83335.0,-7735.0,406507.5
-178.61,-232.53,906.09,80762.5,-3797.5,413682.5
-130.66,-232.65,907.56,78522.5,12792.5,408520.0
-63.68,-229.6,914.15,88620.0,24692.5,394082.5
36.23,-211.43,926.47,113907.5,34667.5,347077.5
164.09,-169.09,931.23,140945.0,52797.5,259612.5
290.6,-109.68,911.58,126490.0,54390.0,162207.5
397.48,-42.58,875.84,64697.5,31885.0,60357.5
483.61,18.91,846.44,4742.5,6090.0,-33267.5
556.32,67.22,831.8,-14612.5,507.5,-100607.5
624.64,107.6,822.28,-17552.5,16030.0,-165620.0
688.32,143.59,810.69,-31482.5,27142.5,-251422.5
737.61,167.63,799.22,-45972.5,19372.5,-348792.5
763.11,170.68,790.8,-45482.5,-1767.5,-418495.0
763.96,153.84,787.02,-39725.0,-21000.0,-447667.5
745.42,124.2,788.73,-30327.5,-31902.5,-451412.5
710.16,88.45,797.39,-17237.5,-35420.0,-448087.5
653.92,47.7,810.57,-5792.5,-21507.5,-439390.0
567.18,2.32,822.89,-6475.0,-2730.0,-403322.5
446.89,-41.97,835.94,-3780.0,-13947.5,-321545.0
301.34,-81.25,853.02,16380.0,-39217.5,-203105.0
152.74,-114.19,873.28,45640.0,-45360.0,-68320.0
23.55,-140.06,887.55,60620.0,-18567.5,50015.0
-79.79,-160.43,888.4,53812.5,3955.0,144707.5
-160.31,-176.66,877.91,52185.0,-5635.0,224157.5
-219.23,-186.9,858.15,49665.0,-24762.5,288942.5
-253.76,-188.86,836.07,37852.5,-43942.5,329717.5
-265.35,-187.39,820.08,25830.0,-32987.5,354130.0
-259.98,-187.15,808.49,10150.0,3115.0,381027.5
-240.34,-186.9,798.98,-5250.0,28070.0,409710.0
-200.45,-184.22,795.93,-14315.0,29820.0,428347.5
-122.73,-173.73,810.57,-4847.5,30940.0,408415.0
4.27,-143.96,840.09,29855.0,68057.5,333637.5
156.16,-88.57,858.64,52745.0,113732.5,210192.5
284.99,-20.62,848.63,23887.5,87727.5,81532.5
374.42,43.68,830.82,-18007.5,-542.5,-13002.5
447.25,97.97,830.45,-24220.0,-60252.5,-76842.5
519.6,142.37,842.65,-12617.5,-50855.0,-134785.0
588.16,178.85,852.41,-11795.0,-13475.0,-197557.5
648.06,207.16,854.0,-17727.5,15190.0,-268275.0
699.18,224.24,847.9,-22627.5,22330.0,-343315.0
738.59,224.24,838.38,-22400.0,21997.5,-407925.0
757.86,206.18,829.84,-18585.0,22067.5,-450030.0
746.27,173.12,821.55,-11690.0,19285.0,-465482.5
695.64,130.54,810.2,-12075.0,9240.0,-447247.5
605.85,86.01,798.12,-21805.0,-23607.5,-393925.0
488.24,45.38,796.66,-16082.5,-81392.5,-318570.0
355.63,5.12,809.59,2660.0,-103617.5,-228410.0
222.65,-39.04,829.6,8295.0,-72765.0,-118142.5
105.65,-81.74,846.92,-1365.0,-17465.0,-10132.5
7.56,-115.66,857.66,-14857.5,15102.5,68442.5
-77.59,-142.13,863.52,-12425.0,5827.5,130392.5
-150.91,-162.26,866.69,-2345.0,-17535.0,193497.5
-209.23,-174.58,869.86,8995.0,-35752.5,251405.0
-251.08,-183.98,872.3,18025.0,-41002.5,309085.0
-271.33,-191.54,874.13,30782.5,-43435.0,366362.5
-268.16,-197.4,875.23,39375.0,-29207.5,407540.0
-244.98,-203.5,875.11,31447.5,-1172.5,437115.0
-203.86,-208.62,879.01,26652.5,12302.5,447510.0
-134.93,-208.86,895.36,46025.0,16660.0,433037.5
-24.28,-194.47,921.71,83125.0,53165.0,373520.0
115.9,-154.45,936.47,105122.5,98577.5,271827.5
254.13,-90.04,922.56,86642.5,95602.5,149712.5
365.63,-16.96,888.77,27405.0,39847.5,26827.5
447.98,47.34,863.27,-26145.0,-22977.5,-73307.5
514.96,95.89,858.15,-34790.0,-41982.5,-138530.0
575.84,133.22,859.73,-28945.0,-17902.5,-191765.0
630.62,163.6,856.68,-37677.5,15820.0,-258650.0
670.88,180.56,848.88,-51940.0,29662.5,-329980.0
687.1,177.63,840.46,-52500.0,19232.5,-379225.0
679.05,158.72,834.48,-37327.5,-4200.0,-397792.5
649.77,131.03,832.16,-20037.5,-27160.0,-402167.5
597.68,97.6,831.8,-15907.5,-22627.5,-391457.5
521.67,60.51,831.43,-32095.0,437.5,-358575.0
422.73,21.72,835.58,-43767.5,10815.0,-300650.0
303.05,-16.71,847.78,-30432.5,2327.5,-213027.5
170.31,-51.97,865.22,-70.0,-16677.5,-102847.5
40.75,-83.33,881.45,30415.0,-28472.5,17622.5
-66.12,-110.04,890.97,47442.5,-28927.5,127277.5
-142.13,-130.05,894.26,50907.5,-17727.5,210192.5
-192.76,-143.47,894.5,44975.0,1050.0,269465.0
-223.02,-151.28,894.38,46987.5,4777.5,316785.0
-233.26,-153.72,892.55,62720.0,-1522.5,347742.5
-225.46,-153.6,883.65,71925.0,-13177.5,365540.0
-203.01,-148.23,868.88,70612.5,-26932.5,369740.0
-167.14,-135.18,854.0,53725.0,-18200.0,356685.0
-112.97,-113.83,844.85,20597.5,15172.5,330137.5
-25.74,-78.57,844.85,-5495.0,66167.5,272790.0
87.6,-29.89,842.53,-26355.0,117810.0,180582.5
197.64,25.86,831.19,-51852.5,91910.0,81900.0
293.17,82.96,827.89,-48475.0,-2765.0,-4602.5
382.59,135.54,841.68,-8872.5,-69755.0,-73552.5
468.97,180.32,861.08,20562.5,-64907.5,-131600.0
549.73,218.14,874.98,22207.5,-22610.0,-188335.0
617.81,246.2,878.52,4760.0,27230.0,-249445.0
665.63,260.35,873.28,-13492.5,45150.0,-299197.5
693.2,262.06,863.64,-15645.0,31937.5,-340130.0
700.65,252.42,852.41,-12407.5,122.5,-378070.0
683.69,228.63,842.9,-6895.0,-29015.0,-401117.5
636.23,192.03,835.46,-9415.0,-44152.5,-394800.0
559.98,147.86,830.09,-22610.0,-44975.0,-359415.0
460.43,98.94,828.38,-39935.0,-38885.0,-301367.5
342.58,47.34,833.02,-50662.5,-29785.0,-221620.0
211.3,-4.51,845.7,-47985.0,-22347.5,-125580.0
75.88,-55.51,864.13,-28227.5,-23292.5,-13457.5
-43.43,-101.26,882.3,6947.5,-27405.0,101605.0
-134.08,-137.13,893.65,27002.5,-18165.0,190260.0
-199.47,-164.46,899.14,27965.0,-3482.5,261432.5
-243.27,-183.37,902.92,35367.5,1032.5,322420.0
-264.98,-193.86,904.87,48982.5,-5810.0,368462.5
-264.13,-197.76,904.87,64190.0,-18200.0,400225.0
-242.29,-198.37,903.29,74077.5,-23940.0,418722.5
-195.2,-195.2,902.31,83877.5,-31552.5,424340.0
-105.41,-180.19,907.56,101167.5,-25865.0,389182.5
39.53,-140.3,912.56,119840.0,30450.0,295330.0
202.03,-76.98,890.84,93870.0,108220.0,165987.5
326.47,-6.1,843.02,5792.5,93362.5,43400.0
409.68,59.78,807.15,-53532.5,-11182.5,-42122.5
476.78,112.48,804.35,-36207.5,-69860.0,-91000.0
541.92,153.96,812.76,-9957.5,-46357.5,-128625.0
599.75,187.03,810.08,-25917.5,12232.5,-172567.5
642.45,210.57,798.0,-61565.0,43785.0,-217997.5
668.07,223.38,785.8,-81725.0,46620.0,-264862.5
674.42,223.87,780.19,-78802.5,34545.0,-305917.5
662.7,211.79,779.46,-66990.0,25585.0,-336157.5
634.52,187.64,777.87,-63437.5,30695.0,-359170.0
587.06,151.4,775.07,-73885.0,45255.0,-368112.5
518.87,106.87,777.87,-79537.5,52622.5,-356527.5
430.17,57.46,788.85,-64137.5,44450.0,-322980.0
319.88,6.71,804.35,-36225.0,26092.5,-261012.5
190.56,-41.24,820.94,-4270.0,-3955.0,-169540.0
55.39,-82.96,836.19,27002.5,-30625.0,-55422.5
-66.73,-117.0,846.68,41527.5,-36067.5,55317.5
-162.99,-144.45,852.17,37187.5,-21770.0,149747.5
-230.09,-166.04,855.22,31972.5,-1767.5,223247.5
-271.94,-181.54,856.68,32970.0,11917.5,276500.0
-294.02,-191.3,855.71,39795.0,10325.0,315997.5
-297.56,-193.0,852.41,46427.5,-105.0,345135.0
-284.14,-186.42,849.24,46340.0,-6895.0,360885.0
-255.96,-175.44,848.39,39480.0,-5512.5,371805.0
-211.79,-162.63,851.07,35262.5,-15417.5,377212.5
-132.98,-142.74,864.49,56315.0,-33250.0,358522.5
2.07,-99.55,886.82,102830.0,-4830.0,277655.0
165.19,-29.16,887.43,109357.5,59990.0,138932.5
295.61,46.97,857.05,31412.5,65730.0,-5057.5
375.52,108.58,831.06,-38395.0,367.5,-94500.0
432.86,156.53,827.16,-30992.5,-47302.5,-135835.0
486.9,196.66,829.48,-20002.5,-34790.0,-177012.5
532.29,227.41,824.11,-37625.0,1767.5,-227517.5
561.2,244.73,810.45,-73482.5,25917.5,-271390.0
570.96,246.81,796.17,-96915.0,28612.5,-300125.0
563.03,236.07,788.61,-95357.5,15260.0,-313670.0
539.48,216.43,788.49,-80027.5,2292.5,-322087.5
500.2,188.25,795.32,-66045.0,3500.0,-329875.0
442.86,149.94,808.25,-52570.0,17657.5,-325920.0
364.66,102.72,822.28,-42122.5,36260.0,-297080.0
262.18,51.24,833.02,-32007.5,38500.0,-239802.5
135.18,-0.37,842.17,-17517.5,4462.5,-151392.5
-0.73,-48.07,855.59,10290.0,-42175.0,-34772.5
-119.32,-89.3,872.54,39357.5,-51310.0,77752.5
-208.86,-124.93,886.33,46480.0,-25235.0,169925.0
-272.79,-153.84,896.82,51065.0,-1977.5,245840.0
-313.3,-174.46,905.36,74357.5,4497.5,308350.0
-330.13,-184.46,907.92,103635.0,3657.5,351190.0
-325.98,-184.95,900.24,118667.5,-297.5,374272.5
-304.76,-177.88,883.65,115150.0,-9380.0,384720.0
-267.55,-165.92,866.69,102620.0,-17377.5,383127.5
-213.62,-150.91,855.59,96197.5,-18882.5,369407.5
-129.08,-126.51,853.51,99697.5,-13300.0,328772.5
0.24,-77.84,855.71,110985.0,19250.0,238332.5
147.62,-3.17,841.31,96407.5,54442.5,109707.5
262.67,73.69,807.52,25952.5,34422.5,-17570.0
332.33,131.27,781.65,-30887.5,-16607.5,-89215.0
383.45,174.46,776.9,-31885.0,-41842.5,-113750.0
438.22,215.45,778.85,-18620.0,-18375.0,-148487.5
489.46,250.47,769.7,-35245.0,21682.5,-204435.0
522.28,271.45,749.2,-75897.5,36330.0,-253872.5
536.07,278.4,728.83,-98525.0,21385.0,-285372.5
534.36,274.38,714.8,-101815.0,-5722.5,-307212.5
518.26,260.59,707.97,-101080.0,-25007.5,-323470.0
488.61,238.63,708.7,-101027.5,-30397.5,-332412.5
446.03,209.23,716.26,-99330.0,-19775.0,-332377.5
388.2,172.75,729.32,-97265.0,-5635.0,-318832.5
311.71,130.78,747.98,-84735.0,1820.0,-280000.0
217.65,87.84,769.58,-61477.5,-192.5,-214952.5
112.48,48.68,791.17,-41072.5,-7105.0,-135065.0
8.05,14.76,812.28,-27597.5,-16152.5,-52815.0
-83.33,-14.64,834.97,-17010.0,-18620.0,19355.0
-158.48,-41.48,858.27,-5757.5,-8820.0,76405.0
-223.26,-67.47,882.06,7717.5,-7997.5,130987.5
-277.67,-93.45,906.46,41790.0,-19127.5,193515.0
-317.57,-117.12,927.69,82180.0,-22995.0,257565.0
-341.36,-134.93,940.62,112157.5,-19810.0,313582.5
-347.58,-146.16,942.69,127610.0,-15767.5,353640.0
-336.48,-151.77,935.74,132212.5,-22102.5,380730.0
-307.93,-153.11,926.35,133455.0,-30065.0,397127.5
-262.06,-151.77,919.27,140367.5,-30117.5,401537.5
-192.03,-145.55,914.15,156800.0,-30292.5,388395.0
-76.86,-118.58,907.68,180460.0,-17920.0,329560.0
79.54,-57.71,883.77,176610.0,30187.5,210805.0
228.99,25.74,828.62,98962.5,60095.0,61057.5
335.62,103.46,764.94,-16835.0,27737.5,-64697.5
408.21,160.8,730.29,-70700.0,-17185.0,-136850.0
467.75,205.45,721.63,-45832.5,-28595.0,-177485.0
517.52,242.54,713.46,-38377.5,-16677.5,-222740.0
554.12,269.86,697.72,-53147.5,-1050.0,-268747.5
581.09,284.63,675.27,-79870.0,8575.0,-311307.5
594.26,283.77,652.21,-105280.0,7910.0,-345712.5
587.92,267.91,635.13,-117460.0,-3535.0,-360937.5
565.59,242.17,626.71,-120907.5,-13370.0,-364315.0
531.19,208.25,625.13,-126367.5,-10080.0,-372050.0
477.63,164.46,632.2,-135887.5,-3325.0,-372662.5
397.84,112.97,650.26,-127452.5,-5880.0,-343192.5
291.82,58.56,677.1,-105350.0,-25305.0,-281575.0
165.68,3.78,713.33,-71067.5,-56157.5,-188317.5
31.48,-49.78,759.33,-25567.5,-67515.0,-71942.5
-92.6,-101.5,807.4,15452.5,-45570.0,52412.5
-190.2,-148.23,846.07,44135.0,-8732.5,164307.5
-259.13,-187.27,871.45,61950.0,13807.5,249882.5
-306.34,-217.65,885.96,80727.5,13072.5,316470.0
-334.16,-238.39,890.6,103652.5,-12197.5,366555.0
-342.33,-250.47,886.45,121572.5,-41300.0,400015.0
-329.89,-254.86,876.94,124932.5,-52325.0,422397.5
-298.66,-252.91,866.81,114887.5,-39602.5,430640.0
-246.44,-249.37,859.86,104930.0,-17325.0,432477.5
-153.84,-233.39,859.49,115325.0,14087.5,410200.0
-10.74,-186.66,857.9,122447.5,83265.0,317222.5
144.2,-115.29,833.38,75862.5,130305.0,176750.0
266.94,-37.58,788.0,-7367.5,78032.5,45395.0
357.95,35.14,752.74,-57977.5,-28402.5,-58940.0
436.03,94.92,743.71,-59272.5,-93747.5,-136885.0
506.06,140.06,750.06,-51082.5,-82180.0,-196070.0
562.66,171.78,757.99,-57662.5,-35350.0,-242550.0
602.92,191.54,762.5,-72187.5,16170.0,-281802.5
622.81,198.13,762.01,-83457.5,52325.0,-311675.0
620.0,191.3,755.79,-83772.5,63525.0,-322770.0
598.29,175.56,744.81,-82915.0,51327.5,-326707.5
559.86,153.23,735.42,-83755.0,26232.5,-333917.5
504.84,123.34,734.44,-81707.5,7700.0,-336140.0
426.39,83.94,743.22,-83247.5,2292.5,-323627.5
314.76,34.53,763.23,-75390.0,-12547.5,-268397.5
178.36,-20.13,793.0,-33232.5,-41335.0,-158252.5
40.87,-70.52,826.06,17342.5,-56472.5,-30467.5
-75.15,-111.51,854.85,50610.0,-40355.0,83475.0
-164.58,-144.2,873.52,60305.0,-11637.5,172987.5
-231.8,-169.58,884.26,68775.0,-4165.0,251877.5
-275.6,-186.9,889.87,91315.0,-14630.0,317450.0
-295.12,-195.44,888.04,108045.0,-28682.5,362757.5
-291.58,-197.4,881.33,112980.0,-41300.0,389007.5
-264.74,-194.71,874.86,114117.5,-44205.0,399700.0
-207.52,-182.88,872.06,117582.5,-25322.5,386207.5
-116.14,-156.28,868.15,114537.5,28717.5,336612.5
-6.1,-113.22,855.46,87640.0,93660.0,260050.0
103.33,-56.61,834.24,47355.0,113557.5,174457.5
203.37,5.49,809.23,16905.0,81690.0,86975.0
293.04,66.49,788.61,-4200.0,24482.5,4567.5
375.52,121.39,778.12,-14595.0,-8732.5,-71330.0
449.94,167.26,773.48,-27772.5,-5635.0,-135467.5
515.82,205.69,770.31,-45097.5,9065.0,-200497.5
568.28,232.78,765.67,-60235.0,17150.0,-264285.0
600.48,243.88,759.45,-68355.0,7787.5,-308665.0
611.46,241.44,754.2,-68267.5,-5687.5,-331152.5
604.02,230.34,750.79,-71540.0,-17990.0,-340690.0
582.67,213.5,750.42,-78890.0,-19880.0,-349825.0
547.29,188.0,753.47,-89757.5,-9905.0,-362722.5
492.88,149.33,760.79,-96565.0,245.0,-361322.5
416.63,100.04,774.09,-86677.5,-1907.5,-334180.0
319.4,45.26,792.51,-62510.0,-17290.0,-280367.5
204.59,-10.86,814.47,-32690.0,-40162.5,-201617.5
82.59,-64.05,838.26,-1295.0,-56822.5,-102585.0
-33.18,-110.17,861.32,18007.5,-48702.5,-245.0
-134.69,-148.84,881.21,20370.0,-20930.0,93642.5
-218.87,-183.49,899.14,25987.5,-2415.0,182507.5
-282.31,-215.94,916.22,50242.5,-2887.5,265807.5
-322.45,-244.49,930.25,87202.5,-9922.5,338712.5
-339.89,-264.74,936.47,118195.0,-13737.5,390705.0
-337.09,-275.84,931.96,132632.5,-18987.5,424060.0
-316.83,-282.06,918.17,129535.0,-26197.5,448892.5
-278.89,-287.92,903.17,125247.5,-38027.5,470400.0
-214.6,-293.53,896.7,136360.0,-40757.5,473620.0
-99.19,-285.97,901.58,166145.0,-5495.0,432810.0
77.1,-241.32,898.04,186130.0,89845.0,319322.5
257.91,-163.72,854.73,123690.0,164902.5,162120.0
382.59,-82.11,786.41,-8067.5,111895.0,15435.0
459.57,-13.91,743.47,-80325.0,-3972.5,-71820.0
526.55,40.5,739.2,-62895.0,-65817.5,-122342.5
600.0,87.84,748.23,-33845.0,-42875.0,-174912.5
666.36,126.27,748.1,-45552.5,14962.5,-241307.5
709.06,150.06,737.25,-85102.5,52307.5,-295207.5
727.85,157.38,724.68,-109672.5,62685.0,-320880.0
728.58,152.87,715.9,-106697.5,55247.5,-329455.0
714.8,142.62,709.31,-94290.0,30870.0,-340742.5
688.93,125.42,703.7,-93835.0,8575.0,-358242.5
650.02,96.62,702.72,-101657.5,6912.5,-373537.5
595.48,56.61,707.48,-107082.5,17325.0,-380572.5
521.79,5.61,717.97,-105297.5,22785.0,-372942.5
423.83,-53.56,734.81,-88130.0,10360.0,-335090.0
299.88,-116.39,757.74,-58135.0,-21000.0,-260627.5
158.23,-177.75,786.78,-19005.0,-52780.0,-151672.5
19.52,-232.29,819.23,14980.0,-58730.0,-30642.5
-96.87,-278.16,848.88,27195.0,-24167.5,76492.5
-186.66,-315.61,872.06,26197.5,12250.0,162015.0
-252.78,-346.36,889.87,39777.5,20440.0,233712.5
-298.17,-371.49,901.95,67585.0,9047.5,294157.5
-324.52,-389.3,908.17,100467.5,-17272.5,345065.0
-334.28,-399.67,908.05,129587.5,-39515.0,384562.5
-330.13,-405.53,899.87,144567.5,-57837.5,425005.0
-307.93,-406.99,887.43,154805.0,-77350.0,463400.0
-261.81,-408.09,877.3,156537.5,-73115.0,483000.0
-176.9,-408.94,874.74,167422.5,-52692.5,474827.5
-35.01,-388.94,874.01,194985.0,105.0,410865.0
148.35,-326.59,856.32,188527.5,84717.5,287630.0
317.32,-235.58,807.15,120715.0,118895.0,135642.5
431.88,-147.5,740.54,5582.5,53795.0,2940.0
506.3,-74.05,696.62,-64837.5,-30187.5,-75897.5
569.25,-14.88,684.66,-62860.0,-66045.0,-127330.0
630.13,33.18,682.96,-53112.5,-40302.5,-174422.5
682.22,70.52,675.15,-73255.0,10482.5,-226905.0
718.34,95.89,661.73,-112787.5,44485.0,-276570.0
736.88,106.63,652.82,-133630.0,57872.5,-314842.5
740.17,103.94,651.24,-124897.5,51905.0,-338327.5
730.29,92.23,651.72,-110057.5,39095.0,-361830.0
704.92,71.25,651.72,-109287.5,28560.0,-384632.5
662.95,39.65,653.92,-119507.5,24045.0,-400487.5
606.22,-3.42,662.46,-126385.0,26512.5,-408240.0
530.94,-58.07,679.05,-119490.0,30992.5,-398020.0
430.42,-120.54,701.74,-100852.5,26407.5,-356790.0
299.39,-186.17,729.32,-70770.0,-3412.5,-274207.5
146.52,-247.9,763.23,-22977.5,-50820.0,-151987.5
-1.22,-300.61,801.05,25515.0,-65870.0,-18830.0
-120.54,-343.55,832.04,43085.0,-26932.5,95602.5
-209.6,-377.35,850.34,35892.5,11620.0,182595.0
-274.99,-403.58,861.08,41282.5,11445.0,253522.5
-317.44,-422.12,868.52,65590.0,-12460.0,307335.0
-337.33,-433.34,872.54,91472.5,-31062.5,341390.0
-339.16,-438.96,869.86,106645.0,-35927.5,363440.0
-327.45,-438.47,859.25,104842.5,-40092.5,382217.5
-304.15,-431.03,846.31,96687.5,-48387.5,396725.0
-269.13,-418.83,839.24,89390.0,-47845.0,404232.5
-219.84,-406.38,842.78,98700.0,-43067.5,411232.5
-133.35,-385.52,855.22,132440.0,-30485.0,395342.5
10.37,-340.14,862.05,157080.0,41230.0,318902.5
172.39,-270.35,843.14,119105.0,120540.0,189875.0
296.58,-190.81,804.47,35367.5,90300.0,68705.0
380.64,-116.75,773.48,-10815.0,-11217.5,-8627.5
451.4,-53.44,762.87,-8820.0,-83265.0,-60637.5
520.7,1.1,762.62,437.5,-83142.5,-106435.0
583.77,48.07,756.28,-15750.0,-38622.5,-155382.5
633.91,85.89,741.27,-59500.0,3850.0,-205992.5
670.02,112.97,725.9,-93380.0,14595.0,-257932.5
692.23,126.27,717.36,-103862.5,7105.0,-305217.5
701.74,126.39,716.26,-96180.0,-1872.5,-341652.5
697.35,115.41,716.63,-91857.5,-7665.0,-373380.0
675.15,92.23,716.63,-101395.0,-8470.0,-393610.0
635.38,57.83,720.78,-108990.0,-4742.5,-399105.0
579.01,13.42,730.29,-110512.5,1592.5,-395832.5
502.76,-40.02,746.52,-104107.5,7070.0,-374727.5
401.38,-98.7,768.84,-86082.5,717.5,-322210.0
275.6,-157.87,796.05,-57890.0,-24430.0,-235830.0
138.1,-212.77,828.62,-19250.0,-55667.5,-126227.5
9.88,-260.71,864.0,21175.0,-61985.0,-13720.0
-94.67,-299.75,893.28,42262.5,-29382.5,82897.5
-175.19,-329.64,912.07,46445.0,332.5,161070.0
-235.22,-351.97,923.78,62562.5,1417.5,226257.5
-276.21,-367.83,931.23,89582.5,-10482.5,281575.0
-297.8,-376.98,933.54,113715.0,-17850.0,324012.5
-302.19,-381.74,928.05,121852.5,-14665.0,355950.0
-291.95,-383.2,914.63,114205.0,-12845.0,388762.5
-266.2,-378.44,898.9,93642.5,-4620.0,412370.0
-224.6,-369.05,887.06,67270.0,10080.0,424480.0
-161.77,-357.95,883.52,50820.0,16467.5,427402.5
-56.97,-333.91,890.84,56980.0,34475.0,392227.5
95.28,-281.82,896.21,76090.0,99260.0,289450.0
248.15,-207.16,875.96,52797.5,141452.5,150710.0
359.29,-127.12,839.24,-9292.5,62807.5,25025.0
437.25,-57.83,819.6,-30415.0,-52762.5,-57102.5
505.93,-1.71,822.16,-10062.5,-92365.0,-103915.0
571.69,45.75,824.84,-5547.5,-61197.5,-144672.5
626.71,83.08,816.18,-38447.5,-7647.5,-185920.0
664.53,108.21,800.81,-76055.0,19302.5,-216825.0
687.1,123.34,788.12,-93362.5,14437.5,-243985.0
697.84,128.83,783.85,-93905.0,5512.5,-271565.0
696.62,124.81,787.51,-88427.5,1540.0,-295522.5
683.32,112.48,797.03,-76125.0,8137.5,-313197.5
657.7,91.5,806.05,-70612.5,30065.0,-324922.5
617.08,59.54,811.54,-74147.5,51940.0,-327705.0
556.56,17.08,813.98,-74112.5,48352.5,-319567.5
472.63,-30.26,819.84,-64452.5,7227.5,-304255.0
365.02,-80.64,838.14,-39270.0,-43785.0,-267032.5
239.85,-135.3,868.15,-5565.0,-66307.5,-190435.0
108.95,-190.69,901.95,18830.0,-52010.0,-87920.0
-12.44,-239.73,931.84,34457.5,-17850.0,17307.5
-111.02,-276.94,952.7,42122.5,11165.0,100170.0
-185.07,-302.07,964.65,52237.5,18532.5,156677.5
-238.75,-318.18,970.02,69475.0,8785.0,199710.0
-274.26,-326.72,969.9,86782.5,-1732.5,233432.5
-293.53,-328.79,964.04,97422.5,-3832.5,259525.0
-298.05,-325.25,951.84,98805.0,-1592.5,278267.5
-289.38,-317.08,933.06,89442.5,-4147.5,288470.0
-270.6,-305.98,912.44,74567.5,-7945.0,295452.5
-242.9,-293.29,896.7,65345.0,-10360.0,311202.5
-196.3,-277.67,891.7,71155.0,-12127.5,328790.0
-110.65,-251.56,899.26,96757.5,13020.0,320320.0
17.93,-204.84,903.78,116917.5,83020.0,266262.5
154.57,-139.57,885.48,77927.5,139842.5,177467.5
267.18,-65.76,854.61,5267.5,104562.5,85522.5
357.46,6.1,835.58,-21297.5,6790.0,10605.0
438.47,67.47,832.04,-5040.0,-54477.5,-44922.5
513.62,117.49,833.87,2940.0,-51572.5,-89880.0
576.21,157.5,830.82,-9572.5,-16712.5,-130865.0
620.61,187.64,821.18,-37047.5,7385.0,-169120.0
645.99,206.67,809.35,-53025.0,13055.0,-202562.5
653.31,214.72,796.9,-60532.5,1802.5,-229530.0
646.11,213.62,787.51,-66010.0,-15977.5,-251195.0
627.32,204.35,784.46,-68582.5,-19985.0,-267872.5
596.95,186.9,784.46,-75862.5,-6702.5,-279492.5
551.56,161.53,784.58,-92207.5,8522.5,-285740.0
488.12,128.59,787.39,-104230.0,9590.0,-284287.5
404.55,88.82,797.64,-97737.5,-11235.0,-265597.5
302.93,45.02,818.25,-72257.5,-42577.5,-222705.0
192.52,0.0,848.51,-39742.5,-62387.5,-159425.0
84.79,-43.43,884.62,-7157.5,-53060.0,-89862.5
-15.49,-83.94,919.03,15085.0,-17010.0,-22225.0
-108.82,-119.8,944.77,29015.0,7682.5,48020.0
-188.98,-149.21,962.58,49542.5,1942.5,113487.5
-247.66,-171.29,975.02,68127.5,542.5,166985.0
-283.77,-186.42,981.12,76387.5,11987.5,205100.0
-301.71,-195.44,980.03,77962.5,20352.5,231490.0
-305.61,-199.35,972.22,76440.0,19285.0,250477.5
-298.41,-198.37,960.14,73692.5,12407.5,262867.5
-284.02,-193.49,946.35,67322.5,6772.5,274120.0
-262.79,-185.56,934.76,58450.0,5267.5,294927.5
-225.46,-174.22,930.25,55580.0,10115.0,319182.5
-153.23,-153.23,935.13,67532.5,32007.5,318290.0
-37.45,-114.68,940.25,80255.0,81970.0,268957.5
99.06,-59.05,929.27,64540.0,120820.0,178675.0
221.06,5.73,902.68,20807.5,90300.0,81672.5
318.79,70.76,880.6,-2782.5,4865.0,5197.5
404.55,128.95,874.25,10972.5,-53445.0,-52027.5
483.97,176.9,873.89,17867.5,-47232.5,-97352.5
549.98,214.11,868.15,2450.0,-10500.0,-137602.5
595.97,240.46,855.71,-20597.5,11427.5,-169242.5
624.88,258.15,841.19,-34370.0,11340.0,-194897.5
641.48,267.55,827.89,-41335.0,8662.5,-222512.5
646.6,266.81,814.96,-53567.5,12302.5,-251072.5
638.43,254.98,802.88,-73657.5,17150.0,-278197.5
613.05,231.68,795.44,-91525.0,11550.0,-298795.0
567.3,199.1,798.12,-90020.0,-13055.0,-308245.0
501.54,159.58,812.4,-66412.5,-50977.5,-306092.5
418.95,113.95,833.87,-34352.5,-83755.0,-290045.0
321.59,63.2,858.15,-16485.0,-89547.5,-254555.0
211.79,9.03,883.65,-17482.5,-67340.0,-194897.5
94.31,-44.65,911.1,-20387.5,-38325.0,-120400.0
-24.4,-92.96,941.35,-8977.5,-15872.5,-40215.0
-134.44,-133.59,970.02,19250.0,1365.0,40932.5
-226.07,-165.68,988.57,48055.0,9730.0,112840.0
-294.02,-189.83,993.32,66692.5,10290.0,171797.5
-338.18,-206.06,986.61,68407.5,14875.0,213780.0
-361.97,-215.7,972.46,58887.5,20370.0,241482.5
-369.05,-220.21,954.65,48352.5,21945.0,261625.0
-361.61,-220.21,935.01,35367.5,22155.0,275712.5
-339.65,-213.5,915.98,22645.0,20720.0,286947.5
-299.02,-197.76,901.82,12197.5,22767.5,292740.0
-232.53,-171.29,894.99,3220.0,32042.5,283342.5
-134.44,-131.64,894.38,280.0,45535.0,246382.5
-11.96,-78.57,896.33,-5810.0,54565.0,179830.0
112.97,-15.86,901.7,-17185.0,41947.5,98052.5
222.65,47.82,914.51,-10115.0,1977.5,25130.0
313.3,104.92,933.06,20020.0,-41370.0,-25060.0
389.18,153.6,950.14,47722.5,-60567.5,-61092.5
453.23,194.1,958.55,55387.5,-49525.0,-93992.5
503.37,225.7,955.99,43277.5,-25497.5,-127120.0
537.78,247.78,946.48,25462.5,-8085.0,-157185.0
557.17,259.98,934.03,12005.0,280.0,-185517.5
561.2,261.57,920.0,2345.0,4217.5,-210262.5
548.76,253.27,904.39,-10010.0,6510.0,-231525.0
518.74,236.19,887.31,-25777.5,5740.0,-253120.0
468.97,210.94,870.84,-44765.0,-4410.0,-272282.5
396.38,176.66,858.88,-61687.5,-19687.5,-276237.5
299.51,133.59,855.22,-71400.0,-39777.5,-250442.5
183.24,85.52,863.52,-63595.0,-61197.5,-191747.5
57.83,36.23,882.79,-36260.0,-74515.0,-111597.5
-64.78,-10.25,908.41,-3745.0,-70612.5,-20457.5
-170.56,-49.78,933.91,22330.0,-41160.0,66045.0
-250.95,-80.64,950.99,32007.5,-1697.5,135100.0
-305.73,-103.7,958.31,33285.0,16625.0,186095.0
-338.18,-120.05,959.65,40897.5,15190.0,223615.0
-351.6,-131.03,957.21,48685.0,5775.0,254625.0
-345.99,-135.05,953.8,56735.0,-6650.0,281505.0
-320.37,-130.17,952.82,61530.0,-11165.0,297640.0
-274.26,-117.0,953.67,62877.5,-4952.5,302137.5
-205.69,-96.5,955.14,63052.5,-2765.0,292005.0
-109.19,-67.47,957.09,74585.0,-3762.5,259525.0
16.47,-23.42,953.06,91700.0,1172.5,202720.0
156.28,38.31,936.23,82705.0,9887.5,113032.5
280.36,103.33,909.14,47652.5,2572.5,18112.5
373.32,158.97,881.21,12810.0,-15295.0,-40425.0
447.37,205.81,860.1,-5302.5,-21192.5,-81165.0
514.84,244.85,842.65,-16695.0,-3517.5,-119840.0
572.55,274.13,823.5,-35315.0,21595.0,-165655.0
611.46,291.7,803.86,-56997.5,26687.5,-207025.0
630.25,298.41,790.93,-66150.0,17360.0,-242637.5
631.23,293.53,783.97,-61932.5,11462.5,-272720.0
613.9,275.72,779.21,-65030.0,10727.5,-298952.5
573.52,245.59,777.26,-69107.5,10482.5,-317415.0
507.76,204.84,778.97,-76300.0,7525.0,-321002.5
416.63,154.33,785.68,-77070.0,2310.0,-298112.5
300.97,97.72,797.15,-68127.5,-14385.0,-242375.0
167.87,41.36,815.69,-47372.5,-43277.5,-160632.5
33.67,-10.86,841.43,-13510.0,-57032.5,-62387.5
-85.89,-56.61,867.91,9817.5,-40967.5,30327.5
-182.76,-94.55,889.14,18427.5,-14035.0,109585.0
-254.13,-124.07,903.04,25865.0,-1365.0,171867.5
-300.85,-146.03,911.22,37625.0,-2432.5,216545.0
-327.2,-161.28,915.49,52220.0,-5932.5,249550.0
-335.87,-169.95,915.85,58905.0,-5740.0,276377.5
-325.5,-171.53,913.66,55930.0,1295.0,297290.0
-294.02,-164.46,911.34,48090.0,12565.0,305497.5
-243.15,-148.47,909.27,40425.0,19722.5,298567.5
-168.24,-120.66,907.68,40215.0,14070.0,276535.0
-54.9,-74.54,905.61,49140.0,17342.5,223055.0
86.5,-11.96,893.89,40092.5,41930.0,121922.5
213.26,55.14,872.42,-752.5,28507.5,25095.0
308.78,117.97,861.08,-29925.0,-11620.0,-35210.0
387.59,172.87,869.49,-19687.5,-26670.0,-71137.5
460.67,219.48,881.45,6265.0,-9887.5,-97842.5
525.82,257.91,882.67,5582.5,14052.5,-134750.0
573.64,284.5,875.72,-8960.0,23275.0,-173757.5
601.46,298.17,866.81,-13440.0,8085.0,-199290.0
612.81,302.07,859.0,-6265.0,-12635.0,-219187.5
609.02,296.46,851.56,-5880.0,-20632.5,-239610.0
588.28,279.75,843.51,-15155.0,-16047.5,-254187.5
549.0,253.39,835.21,-30695.0,-10447.5,-260802.5
491.9,218.99,829.36,-46497.5,-8942.5,-258142.5
417.24,177.75,828.75,-56105.0,-9852.5,-248395.0
324.52,130.42,835.33,-58117.5,-20317.5,-224000.0
218.14,79.54,851.07,-45710.0,-40565.0,-179777.5
105.41,28.79,874.74,-19810.0,-54197.5,-118912.5
-7.81,-17.45,901.34,2957.5,-47197.5,-45570.0
-113.22,-56.24,925.98,18742.5,-22645.0,36137.5
-199.84,-86.13,943.79,29802.5,2520.0,111370.0
-263.03,-107.48,953.67,38377.5,13772.5,171062.5
-304.02,-122.12,958.07,51152.5,13720.0,218802.5
-324.76,-130.3,957.58,63857.5,6195.0,252630.0
-328.42,-133.35,953.55,69790.0,-1172.5,277445.0
-316.83,-132.0,948.43,70630.0,-1890.0,298060.0
-291.09,-126.27,944.28,70577.5,945.0,313425.0
-251.81,-116.39,942.45,69667.5,8312.5,321650.0
-194.71,-102.97,945.26,73640.0,13562.5,320372.5
-106.38,-82.23,951.84,90370.0,21192.5,296345.0
17.32,-45.38,950.87,110285.0,39410.0,237265.0
152.62,9.03,930.98,99802.5,50662.5,154700.0
271.69,72.47,896.82,57417.5,30397.5,65012.5
363.44,132.37,863.76,9800.0,-12302.5,-14840.0
434.08,180.56,843.51,-11882.5,-34457.5,-65677.5
493.37,218.14,833.75,-11777.5,-18865.0,-99732.5
543.75,248.03,822.16,-17657.5,9310.0,-133245.0
584.01,271.57,805.2,-37957.5,25725.0,-176522.5
608.66,286.58,789.58,-57120.0,28455.0,-223842.5
615.86,290.48,778.12,-65712.5,26092.5,-262027.5
606.22,283.77,769.82,-67340.0,20702.5,-287875.0
582.06,268.16,762.99,-69982.5,17027.5,-306950.0
545.34,244.24,757.74,-77892.5,16712.5,-324205.0
497.15,211.91,756.28,-84892.5,17360.0,-341897.5
435.42,169.34,759.08,-86275.0,19582.5,-352432.5
355.26,116.75,765.79,-81270.0,15085.0,-336857.5
253.88,59.54,775.07,-67795.0,-2572.5,-285862.5
132.49,5.25,787.39,-56315.0,-33722.5,-204575.0
0.24,-42.21,808.25,-36347.5,-69352.5,-99487.5
-122.85,-82.47,838.26,-3027.5,-78522.5,16800.0
-218.26,-115.9,868.15,25235.0,-47460.0,114170.0
-283.65,-143.11,888.28,32637.5,-8137.5,185780.0
-324.52,-164.21,899.02,34755.0,5985.0,237685.0
-345.75,-180.32,904.39,44677.5,-665.0,272352.5
-350.14,-190.81,906.34,60130.0,-20527.5,296782.5
-339.65,-194.47,907.44,75932.5,-34562.5,307807.5
-318.42,-192.88,907.19,80815.0,-29697.5,312847.5
-290.6,-186.9,905.61,77560.0,-22137.5,319200.0
-257.66,-177.75,904.63,75652.5,-19232.5,329630.0
-213.74,-165.92,907.56,81900.0,-20895.0,340637.5
-142.62,-147.01,917.07,105735.0,-13790.0,329245.0
-36.6,-116.02,922.69,129675.0,22015.0,278810.0
86.38,-70.03,909.88,117005.0,56525.0,202282.5
199.84,-10.61,879.86,72940.0,49927.5,116077.5
293.65,51.61,846.8,26355.0,7087.5,33740.0
370.39,107.36,821.43,665.0,-30485.0,-25830.0
437.74,155.55,805.2,-9467.5,-38220.0,-69177.5
499.71,197.15,793.98,-16275.0,-18497.5,-111107.5
553.39,231.43,782.87,-27755.0,1785.0,-155785.0
593.65,257.66,772.5,-41702.5,-2030.0,-202230.0
619.64,275.11,766.16,-43540.0,-22802.5,-240905.0
634.77,284.14,763.35,-37677.5,-37625.0,-268817.5
640.38,285.24,760.06,-37747.5,-30940.0,-290587.5
632.94,277.06,753.96,-49945.0,-11952.5,-305077.5
610.37,259.86,745.91,-67147.5,-1732.5,-310117.5
578.04,236.07,736.39,-80937.5,-7787.5,-317695.0
537.41,203.62,727.0,-95620.0,-23450.0,-337015.0
481.41,158.84,725.41,-103075.0,-39462.5,-344627.5
405.16,104.31,736.64,-97387.5,-48230.0,-319567.5
306.83,46.85,757.99,-84175.0,-50662.5,-264075.0
187.15,-8.42,786.9,-65712.5,-57662.5,-182857.5
57.22,-58.8,821.79,-36400.0,-71540.0,-77367.5
-61.37,-102.36,858.76,-3972.5,-64820.0,33040.0
-152.5,-138.59,890.36,13352.5,-27737.5,124407.5
-214.48,-166.9,912.93,16030.0,3080.0,191432.5
-252.78,-187.39,930.37,24727.5,12932.5,237825.0
-271.33,-200.2,945.01,45920.0,7892.5,268082.5
-272.67,-205.69,956.24,69247.5,3290.0,284112.5
-260.59,-205.33,962.34,84122.5,7735.0,291305.0
-239.24,-200.08,963.31,85312.5,17675.0,292670.0
-212.04,-191.05,960.99,78242.5,32707.5,292530.0
-181.29,-178.97,957.7,68197.5,47267.5,297517.5
-146.28,-164.09,955.38,58170.0,55527.5,305340.0
-101.26,-146.28,956.11,55195.0,53602.5,308367.5
-35.87,-123.22,961.24,67690.0,42525.0,291742.5
55.14,-89.06,965.02,91035.0,34895.0,242357.5
156.16,-43.31,957.58,96600.0,27912.5,171885.0
243.76,6.95,940.5,81935.0,3517.5,106225.0
310.86,54.9,923.78,76842.5,-39480.0,63770.0
370.39,102.24,910.85,85120.0,-71592.5,34860.0
432.86,151.28,896.94,86485.0,-68600.0,-4637.5
493.73,197.4,875.96,63297.5,-40057.5,-54250.0
543.39,235.22,850.58,21612.5,-8260.0,-99820.0
575.84,262.91,828.5,-10885.0,8715.0,-133367.5
591.09,281.7,812.64,-21787.5,6247.5,-153037.5
593.65,294.75,801.05,-18287.5,-4095.0,-164115.0
587.92,304.76,790.07,-14735.0,-9992.5,-173372.5
576.57,311.71,778.6,-19880.0,-8522.5,-182157.5
561.2,316.22,766.65,-30887.5,-2800.0,-187845.0
543.39,318.66,753.72,-44292.5,2415.0,-194897.5
523.38,318.91,740.66,-56052.5,5180.0,-207900.0
499.71,315.37,726.88,-67095.0,-280.0,-225715.0
472.14,307.2,712.97,-83860.0,-13247.5,-251860.0
439.81,291.09,701.99,-101360.0,-28385.0,-283675.0
400.65,263.64,696.25,-121590.0,-40477.5,-315192.5
353.43,223.99,699.43,-138320.0,-48475.0,-338607.5
292.56,173.85,713.94,-141995.0,-53515.0,-341267.5
209.72,117.73,738.95,-133560.0,-55667.5,-308070.0
100.53,61.98,773.85,-113610.0,-61775.0,-226257.5
-23.91,13.18,818.5,-68407.5,-77297.5,-107222.5
-139.32,-26.35,866.32,-7227.5,-74812.5,16800.0
-225.7,-58.44,904.51,29592.5,-39235.0,117407.5
-279.01,-84.3,928.79,33022.5,-1260.0,182420.0
-306.46,-104.55,945.13,36155.0,14735.0,217595.0
-315.25,-119.93,957.58,52587.5,10412.5,231962.5
-312.56,-130.54,965.14,71785.0,-3290.0,235375.0
-303.05,-135.42,967.95,87027.5,-20440.0,233555.0
-291.82,-135.3,967.34,94570.0,-31307.5,230650.0
-282.55,-131.27,965.87,96372.5,-40792.5,238525.0
-271.33,-123.59,967.83,110337.5,-49192.5,256777.5
-254.0,-116.88,969.29,127505.0,-40722.5,279912.5
-227.29,-111.87,966.73,136902.5,-34702.5,311307.5
-186.17,-106.14,963.07,154035.0,-36907.5,330050.0
-130.3,-101.63,958.19,179147.5,-39882.5,330697.5
-60.76,-97.6,949.28,199570.0,-37152.5,315875.0
18.42,-93.45,933.79,218382.5,-41300.0,290185.0
105.65,-83.57,910.36,235672.5,-54512.5,265510.0
207.16,-54.53,878.52,253627.5,-50890.0,224402.5
317.32,-0.98,833.14,249795.0,-13755.0,164867.5
420.78,63.93,770.8,183715.0,26075.0,81637.5
504.23,122.0,703.7,79222.5,34335.0,-2415.0
565.1,168.36,648.31,5477.5,27230.0,-59290.0
612.56,206.18,608.17,-29207.5,14910.0,-99172.5
653.31,239.36,579.99,-43050.0,892.5,-138600.0
688.81,268.64,559.25,-51870.0,-6825.0,-182140.0
716.63,292.43,540.22,-68827.5,-7647.5,-224770.0
732.98,308.54,521.67,-93502.5,-8977.5,-258597.5
737.86,316.71,506.18,-112910.0,-15522.5,-280245.0
737.49,320.74,494.34,-123357.5,-35612.5,-301367.5
733.95,320.13,487.39,-128800.0,-64295.0,-335667.5
719.92,308.9,484.46,-130305.0,-75652.5,-371787.5
690.28,284.38,483.61,-142905.0,-74480.0,-391545.0
645.75,248.64,484.46,-162120.0,-71015.0,-394852.5
586.33,207.16,490.2,-181632.5,-80395.0,-385822.5
511.18,166.29,508.25,-180267.5,-108622.5,-358592.5
418.22,127.12,541.68,-146930.0,-148400.0,-302697.5
308.17,90.16,589.02,-101377.5,-179392.5,-208845.0
193.74,60.88,649.04,-56315.0,-172270.0,-98962.5
90.89,36.97,715.16,-21805.0,-109130.0,2415.0
9.88,13.91,774.58,-1750.0,-18777.5,93292.5
-45.38,-4.39,818.01,7472.5,44625.0,158865.0
-82.84,-17.93,847.66,16397.5,59185.0,196052.5
-111.63,-30.99,872.18,36697.5,42437.5,230072.5
-132.86,-43.8,895.11,76335.0,11952.5,266630.0
-144.2,-53.44,915.0,118142.5,-9222.5,299285.0
-144.2,-59.54,930.62,145057.5,-1242.5,324222.5
-132.37,-64.78,939.89,154105.0,32217.5,345607.5
-109.8,-73.32,940.62,149520.0,71225.0,375602.5
-74.66,-81.62,933.91,138985.0,96880.0,404407.5
-24.89,-86.01,925.25,135030.0,96022.5,411687.5
42.46,-86.99,919.64,146895.0,76510.0,393067.5
139.2,-76.01,917.44,177380.0,48912.5,341092.5
263.4,-44.65,904.87,212607.5,40460.0,256445.0
386.5,3.9,864.0,194757.5,42402.5,167282.5
487.76,61.24,803.49,111737.5,21560.0,75915.0
569.5,118.34,749.32,21875.0,-19250.0,-3990.0
642.45,167.63,714.19,-18830.0,-39095.0,-70385.0
709.8,206.67,690.52,-37170.0,-22330.0,-128870.0
768.48,238.39,671.0,-55790.0,5792.5,-188405.0
816.06,263.15,654.9,-71960.0,21297.5,-250652.5
850.95,278.65,641.23,-79205.0,12897.5,-305707.5
874.5,284.26,629.52,-77840.0,-8417.5,-354095.0
891.33,281.45,621.47,-73517.5,-36505.0,-404337.5
905.0,267.91,617.08,-67515.0,-58222.5,-462927.5
902.31,234.0,610.24,-77542.5,-55947.5,-518297.5
860.22,177.63,599.51,-108990.0,-46935.0,-532157.5
773.97,113.58,595.24,-124390.0,-83037.5,-483980.0
656.36,58.19,605.73,-97265.0,-160580.0,-398055.0
519.96,15.37,630.98,-52640.0,-210560.0,-294507.5
375.27,-21.47,665.75,-40477.5,-186217.5,-176295.0
238.14,-57.71,706.99,-55037.5,-105665.0,-47827.5
123.46,-91.01,748.35,-69177.5,-6440.0,63927.5
31.35,-117.0,782.26,-76055.0,46602.5,141890.0
-41.72,-137.49,812.03,-55475.0,29417.5,200287.5
-94.43,-153.35,840.82,-9625.0,-11077.5,247782.5
-125.54,-162.02,867.05,30327.5,-28070.0,280105.0
-138.59,-164.46,887.92,49455.0,-12565.0,298882.5
-138.71,-162.26,903.9,53095.0,12635.0,315052.5
-126.64,-155.31,917.2,58940.0,37397.5,326462.5
-102.85,-144.94,927.2,64522.5,61302.5,328265.0
-69.42,-132.49,932.81,67305.0,76667.5,323015.0
-28.3,-117.36,934.15,69090.0,76037.5,312130.0
20.5,-98.33,933.18,73080.0,54862.5,294385.0
79.54,-76.74,933.91,82547.5,21682.5,269430.0
158.11,-47.95,940.99,105245.0,-7507.5,230475.0
262.67,-1.1,947.7,141942.5,-14962.5,161560.0
376.13,62.95,935.74,152512.5,-7910.0,65957.5
469.09,126.51,900.73,103565.0,-9502.5,-29260.0
534.48,178.85,860.22,30712.5,-19302.5,-96337.5
586.09,220.58,829.36,-16327.5,-20580.0,-143937.5
633.67,254.74,808.25,-35630.0,-18410.0,-194180.0
677.34,283.04,790.44,-47145.0,-15820.0,-260890.0
705.28,296.09,770.55,-62335.0,-7612.5,-331345.0
705.16,287.43,747.86,-82022.5,2975.0,-369530.0
679.78,265.11,726.39,-97002.5,-5827.5,-374097.5
636.72,237.53,710.53,-101832.5,-29960.0,-368130.0
579.01,206.67,700.89,-100660.0,-49227.5,-358435.0
506.3,171.9,695.64,-104737.5,-54372.5,-339937.5
417.36,132.86,696.86,-114310.0,-52570.0,-301402.5
311.59,92.23,709.06,-108272.5,-50785.0,-235322.5
191.05,52.83,728.58,-86992.5,-52535.0,-143342.5
65.15,15.37,750.06,-63752.5,-65467.5,-32480.0
-50.51,-18.79,773.11,-37362.5,-90037.5,76160.0
-141.4,-49.53,799.83,-10115.0,-105052.5,167807.5
-203.25,-79.42,830.21,10325.0,-89285.0,239977.5
-238.39,-110.04,860.71,30485.0,-62632.5,298515.0
-249.37,-137.86,888.4,53007.5,-41300.0,343962.5
-240.34,-158.11,915.98,62685.0,-10062.5,367867.5
-216.43,-173.0,949.53,63735.0,33460.0,380485.0
-180.93,-184.1,988.2,82495.0,72030.0,393085.0
-134.57,-189.22,1022.73,120837.5,83790.0,395272.5
-75.15,-188.0,1048.71,165375.0,66710.0,381465.0
-0.24,-180.07,1067.26,212152.5,34685.0,345310.0
93.09,-162.99,1077.38,261205.0,7210.0,282520.0
204.72,-131.39,1071.89,299775.0,6562.5,199657.5
318.91,-84.18,1041.76,296117.5,24727.5,110110.0
415.53,-28.91,988.32,245350.0,26705.0,26845.0
487.27,26.23,923.17,170957.5,12302.5,-41177.5
541.31,77.1,857.42,105647.5,-3815.0,-92452.5
586.82,123.71,793.61,52797.5,-8785.0,-136255.0
626.35,166.77,731.27,4235.0,-13440.0,-180915.0
659.53,205.45,674.17,-43295.0,-33932.5,-231892.5
680.88,233.39,628.06,-80622.5,-60725.0,-279545.0
686.13,247.66,595.6,-99820.0,-78820.0,-302715.0
679.78,253.15,575.11,-108447.5,-97142.5,-314562.5
664.9,253.64,563.88,-112140.0,-107100.0,-331030.0
637.57,244.73,558.03,-120312.5,-96442.5,-346430.0
593.29,224.6,553.15,-137550.0,-74550.0,-347970.0
533.87,195.93,549.12,-157115.0,-66745.0,-338992.5
463.6,161.16,550.59,-162347.5,-81567.5,-322822.5
382.96,122.37,560.59,-156555.0,-105227.5,-297955.0
287.92,80.28,580.84,-152512.5,-113277.5,-252612.5
174.58,35.01,611.71,-145897.5,-110722.5,-172130.0
51.97,-9.27,651.48,-121660.0,-118527.5,-60602.5
-61.0,-49.17,698.57,-79537.5,-127662.5,51117.5
-151.89,-86.01,748.35,-40215.0,-119227.5,145967.5
-215.82,-121.15,798.0,-12250.0,-94762.5,224245.0
-252.3,-154.09,847.17,13265.0,-60987.5,285442.5
-264.25,-185.56,893.04,42717.5,-19407.5,329822.5
-260.23,-215.57,931.35,68127.5,11130.0,370282.5
-247.17,-240.46,964.65,96075.0,19582.5,407015.0
-224.72,-260.59,995.28,129500.0,28980.0,437885.0
-184.59,-276.57,1019.43,168175.0,34387.5,459550.0
-117.36,-284.02,1031.27,196612.5,36172.5,446320.0
-22.94,-281.09,1031.63,206360.0,30467.5,392035.0
92.23,-262.91,1024.68,226572.5,10377.5,316330.0
214.96,-222.77,1002.11,256970.0,-6492.5,233030.0
330.25,-163.11,953.55,242462.5,-20212.5,149765.0
430.17,-95.4,885.35,156642.5,-29365.0,61425.0
512.64,-31.72,818.62,45832.5,-24325.0,-19967.5
579.26,20.74,767.62,-28192.5,-7210.0,-83422.5
632.81,62.83,728.46,-61652.5,5425.0,-130095.0
676.73,100.77,692.96,-82285.0,7857.5,-176715.0
713.82,135.66,660.51,-104440.0,1785.0,-237125.0
741.64,161.53,632.94,-129115.0,-8627.5,-298235.0
756.4,172.75,613.66,-145687.5,-23362.5,-346902.5
755.79,168.6,605.61,-145985.0,-41370.0,-378542.5
739.2,151.77,607.8,-132212.5,-60357.5,-397005.0
708.09,125.78,614.88,-121607.5,-67812.5,-406122.5
664.53,91.26,623.66,-128450.0,-62317.5,-411967.5
606.58,48.07,640.01,-139387.5,-49035.0,-405790.0
529.85,-0.73,668.93,-131530.0,-35612.5,-372995.0
430.42,-50.26,706.99,-106540.0,-23992.5,-307422.5
307.2,-95.16,748.1,-77927.5,-22085.0,-208635.0
171.04,-130.42,790.56,-37555.0,-37572.5,-89442.5
40.75,-157.5,831.19,10622.5,-52045.0,28752.5
-67.59,-182.02,863.52,48562.5,-52710.0,137042.5
-146.89,-205.94,885.6,69247.5,-41475.0,228987.5
-196.42,-227.41,900.6,80797.5,-28787.5,301560.0
-220.82,-245.1,909.88,94465.0,-22925.0,350192.5
-229.36,-259.13,915.49,108710.0,-35700.0,384457.5
-221.31,-269.5,924.88,138652.5,-54075.0,412947.5
-188.25,-277.43,936.72,175227.5,-39532.5,425250.0
-129.56,-282.8,941.84,187320.0,8050.0,420000.0
-50.14,-279.62,938.18,170397.5,59955.0,394065.0
40.99,-263.76,930.01,150447.5,75372.5,349160.0
137.98,-232.04,918.9,158445.0,42910.0,291375.0
237.66,-183.61,897.8,178937.5,-385.0,222775.0
335.01,-123.1,861.81,168017.5,-36172.5,146370.0
427.85,-57.1,817.52,117127.5,-61512.5,65485.0
513.74,6.71,774.58,50802.5,-65012.5,-14542.5
587.92,60.63,737.25,-10920.0,-41440.0,-86747.5
648.8,103.58,706.01,-59307.5,-12110.0,-143640.0
699.18,139.2,677.95,-89547.5,9940.0,-197330.0
739.08,167.38,652.82,-119035.0,20107.5,-254362.5
764.33,184.46,634.89,-141662.5,18427.5,-311307.5
772.26,187.64,625.13,-148802.5,17727.5,-349457.5
765.06,178.61,619.64,-150500.0,23450.0,-368340.0
746.27,160.55,616.1,-152740.0,23607.5,-384685.0
712.97,133.47,617.81,-151777.5,13475.0,-399927.5
663.56,99.31,628.3,-140700.0,-2957.5,-405440.0
597.31,59.54,649.65,-124425.0,-13107.5,-395955.0
509.11,13.66,680.15,-98367.5,-6860.0,-353115.0
396.99,-31.96,712.48,-68757.5,-3570.0,-271372.5
263.64,-69.17,742.25,-41195.0,-17465.0,-165480.0
119.32,-97.84,772.5,-11725.0,-48545.0,-39707.5
-11.83,-121.51,802.76,35735.0,-69282.5,91507.5
-109.8,-142.62,825.82,66675.0,-59587.5,204190.0
-172.14,-160.06,839.36,78977.5,-36260.0,289257.5
-205.33,-174.22,845.46,87622.5,-18532.5,347322.5
-213.99,-184.71,844.12,103005.0,-19110.0,388675.0
-200.69,-189.59,837.41,110617.5,-21087.5,408800.0
-170.43,-190.56,829.36,106890.0,-13597.5,412387.5
-121.27,-187.39,824.96,104597.5,-3832.5,404827.5
-40.99,-171.78,830.09,110967.5,13807.5,361882.5
69.3,-138.84,836.55,124215.0,38167.5,279772.5
189.1,-87.11,826.43,122185.0,36452.5,187442.5
300.36,-20.25,797.39,73955.0,2537.5,87692.5
392.84,47.82,768.97,-1260.0,-33162.5,-13947.5
466.65,103.46,758.47,-43837.5,-44117.5,-92977.5
530.09,145.79,762.99,-50820.0,-25795.0,-147577.5
589.5,180.32,768.84,-51380.0,16800.0,-196577.5
639.77,206.18,768.11,-65467.5,54862.5,-255675.0
669.05,218.26,760.55,-79835.0,70262.5,-305305.0
675.51,216.31,748.71,-83877.5,66342.5,-335020.0
663.07,204.35,738.34,-77910.0,48212.5,-351662.5
632.94,185.2,732.0,-63175.0,28455.0,-357980.0
584.5,161.16,727.49,-55195.0,16695.0,-354410.0
517.16,132.74,725.66,-54897.5,10097.5,-333795.0
431.88,101.38,728.58,-51765.0,3150.0,-289835.0
331.84,70.03,736.51,-45360.0,-5215.0,-226222.5
221.8,40.5,748.1,-40197.5,-12425.0,-150027.5
108.82,13.18,763.23,-35927.5,-14595.0,-66745.0
-0.12,-12.93,781.53,-22610.0,-16135.0,19985.0
-99.8,-38.43,799.47,-647.5,-26460.0,107800.0
-182.27,-62.71,812.15,28437.5,-49367.5,194915.0
-239.61,-82.96,820.08,53042.5,-68460.0,271250.0
-269.62,-99.92,825.21,68460.0,-66360.0,328405.0
-274.5,-113.34,828.62,77315.0,-53375.0,373047.5
-258.4,-122.24,829.84,83090.0,-35192.5,398142.5
-224.97,-126.51,830.33,87482.5,-25235.0,410077.5
-175.56,-126.03,833.5,94885.0,-16047.5,401082.5
-106.14,-120.54,839.97,109217.5,-8312.5,373765.0
-6.1,-101.75,850.1,132422.5,-3955.0,315595.0
122.98,-61.0,852.41,155837.5,11952.5,226905.0
255.22,-0.73,830.7,130340.0,27632.5,122255.0
362.83,65.15,792.76,42017.5,17920.0,18830.0
443.35,123.46,763.96,-38185.0,-8872.5,-65660.0
510.57,168.85,754.45,-67742.5,-18760.0,-124950.0
571.94,203.25,754.45,-66185.0,175.0,-174055.0
624.64,230.34,754.57,-65030.0,26670.0,-228532.5
662.95,247.17,750.06,-70490.0,44660.0,-283832.5
682.96,250.1,740.05,-80465.0,50715.0,-326112.5
689.06,241.07,729.56,-84332.5,49402.5,-355775.0
686.13,222.04,719.43,-81497.5,52920.0,-387520.0
665.51,191.91,706.87,-88130.0,50312.5,-421802.5
612.44,150.06,697.84,-100502.5,17447.5,-432320.0
526.06,101.99,703.45,-78680.0,-29767.5,-392630.0
413.34,53.56,720.78,-39042.5,-58345.0,-313267.5
282.8,8.3,742.49,-17885.0,-65117.5,-207917.5
149.94,-31.35,767.62,822.5,-65625.0,-91700.0
30.99,-65.51,793.12,21595.0,-54320.0,16047.5
-67.1,-94.43,813.74,30415.0,-37677.5,108150.0
-143.72,-118.71,830.7,38815.0,-34125.0,185062.5
-198.98,-139.57,846.92,53025.0,-37537.5,251597.5
-233.02,-156.89,862.78,71260.0,-36662.5,309137.5
-245.34,-168.85,874.98,92802.5,-33967.5,353605.0
-237.9,-175.31,879.01,110512.5,-39952.5,381727.5
-213.5,-175.92,876.33,122605.0,-54267.5,394835.0
-174.22,-174.34,872.18,130025.0,-58852.5,395027.5
-121.39,-175.56,868.15,139667.5,-53497.5,394677.5
-39.41,-167.63,866.44,153317.5,-28210.0,379610.0
87.23,-134.69,864.25,155645.0,55545.0,307877.5
230.46,-80.28,841.8,124022.5,140367.5,199360.0
350.87,-15.25,795.07,38780.0,137917.5,90807.5
443.1,51.73,751.64,-38010.0,58730.0,-13475.0
522.04,110.29,731.88,-55177.5,-13457.5,-105647.5
597.68,156.16,729.93,-48597.5,-21612.5,-182595.0
663.56,190.56,731.39,-49577.5,13650.0,-252735.0
713.09,211.79,729.07,-67357.5,50172.5,-313337.5
744.57,216.67,720.53,-85277.5,80972.5,-356580.0
755.06,206.06,709.06,-91017.5,87500.0,-383495.0
742.98,184.22,698.57,-81830.0,65520.0,-400260.0
709.8,153.96,691.01,-71277.5,34055.0,-406070.0
655.75,117.12,688.08,-66167.5,13772.5,-398510.0
579.99,76.01,691.5,-62387.5,1522.5,-371612.5
482.14,33.18,700.4,-56472.5,-5670.0,-321090.0
363.8,-9.03,713.58,-49542.5,-16905.0,-244370.0
233.87,-48.43,733.1,-32182.5,-32217.5,-143465.0
109.19,-83.08,757.38,-7262.5,-35000.0,-37432.5
1.34,-111.75,780.8,8260.0,-19250.0,52027.5
-89.67,-135.91,799.59,19110.0,-14105.0,127575.0
-163.97,-156.77,814.72,39620.0,-27580.0,197732.5
-219.97,-173.36,825.82,61967.5,-39112.5,257320.0
-256.69,-185.93,833.26,73027.5,-39182.5,305497.5
-273.65,-194.83,837.41,83037.5,-38727.5,349492.5
-272.06,-198.86,836.92,89967.5,-40775.0,383390.0
-253.27,-199.84,833.87,95917.5,-48370.0,407347.5
-216.67,-201.18,831.31,106190.0,-57557.5,423517.5
-159.21,-202.15,833.38,118195.0,-53882.5,423010.0
-72.71,-197.4,843.26,135292.5,-27702.5,391807.5
47.34,-176.41,853.88,163852.5,17727.5,325955.0
184.22,-129.81,845.83,174002.5,59780.0,235655.0
309.39,-64.05,808.98,117967.5,62965.0,132527.5
412.12,7.32,761.89,18322.5,26600.0,23100.0
500.32,71.98,728.83,-52290.0,-11830.0,-76002.5
580.6,123.46,711.87,-79187.5,-16712.5,-161035.0
649.53,161.16,701.5,-96862.5,-1417.5,-240100.0
700.89,183.98,692.11,-112875.0,12705.0,-308245.0
732.24,190.69,685.88,-129377.5,21735.0,-358470.0
744.93,181.78,686.37,-125790.0,31920.0,-386365.0
737.61,159.7,690.15,-103565.0,40232.5,-394257.5
708.33,130.05,691.98,-85680.0,40530.0,-389760.0
659.04,96.87,692.35,-80080.0,39165.0,-378122.5
592.55,61.73,692.96,-80762.5,36750.0,-359870.0
511.3,25.86,697.6,-83352.5,30327.5,-334425.0
415.53,-12.2,709.8,-78417.5,18672.5,-297167.5
303.17,-53.56,730.29,-63332.5,4497.5,-235287.5
176.17,-95.65,757.01,-37100.0,-13160.0,-143955.0
46.97,-133.71,786.9,-1645.0,-31482.5,-34720.0
-64.66,-163.48,815.69,32777.5,-36540.0,65415.0
-147.62,-185.07,838.14,48930.0,-16222.5,138880.0
-208.86,-202.28,853.76,51222.5,5267.5,194512.5
-255.83,-218.01,864.37,63140.0,7035.0,249620.0
-287.43,-231.8,868.64,81427.5,-6422.5,303537.5
-301.22,-239.85,866.69,93380.0,-20545.0,348197.5
-297.92,-241.32,861.56,94797.5,-23047.5,382865.0
-278.16,-238.63,854.85,92207.5,-21385.0,411250.0
-240.83,-234.0,849.61,88725.0,-19477.5,428015.0
-175.19,-227.41,852.54,94657.5,-13580.0,422257.5
-58.32,-207.28,865.22,125545.0,15960.0,373590.0
102.85,-156.4,866.69,155330.0,74200.0,263637.5
251.56,-82.47,831.06,106942.5,91840.0,119682.5
353.92,-7.2,775.43,-5547.5,31867.5,4987.5
427.61,57.71,739.32,-69790.0,-39305.0,-67882.5
493.73,109.07,729.07,-74235.0,-64067.5,-118632.5
553.51,148.6,727.0,-66272.5,-43172.5,-162365.0
600.24,177.75,720.9,-75985.0,-17482.5,-207410.0
630.5,195.93,712.97,-92312.5,-6632.5,-244335.0
645.01,203.01,706.87,-96985.0,-8907.5,-269710.0
645.5,201.54,702.72,-97265.0,-12740.0,-287525.0
636.6,195.32,702.11,-98857.5,-16817.5,-306792.5
622.08,183.73,706.01,-99925.0,-10115.0,-331800.0
597.19,162.26,713.58,-102165.0,3990.0,-355022.5
554.37,128.47,724.92,-102025.0,9467.5,-362215.0
490.68,84.91,742.61,-96145.0,4900.0,-351645.0
406.02,34.28,768.6,-79205.0,-5267.5,-319095.0
299.39,-21.84,800.93,-56840.0,-10622.5,-255412.5
173.73,-79.54,836.68,-33705.0,-13072.5,-155347.5
43.07,-132.74,874.62,-315.0,-15487.5,-37152.5
-73.44,-177.88,909.39,36137.5,-10920.0,73920.0
-163.72,-214.6,934.52,60952.5,1435.0,165025.0
-226.68,-243.63,948.18,74287.5,14297.5,235690.0
-265.47,-264.25,952.7,86940.0,16187.5,291375.0
-282.67,-275.23,950.5,97177.5,9940.0,332255.0
-280.48,-277.43,943.91,105367.5,6370.0,358032.5
-263.28,-272.55,933.18,105455.0,13072.5,372820.0
-235.95,-264.74,918.17,92592.5,25830.0,385297.5
-199.84,-259.86,902.8,76807.5,21857.5,407137.5
-136.4,-252.05,898.16,86502.5,-2625.0,420052.5
-13.79,-221.31,906.83,129482.5,14350.0,366940.0
153.96,-157.87,900.24,144690.0,82285.0,235287.5
304.02,-77.84,857.66,71295.0,98717.5,80062.5
405.04,-1.22,806.91,-27877.5,29855.0,-32812.5
476.53,61.98,781.17,-61810.0,-43067.5,-96687.5
543.75,113.95,776.65,-49437.5,-53357.5,-142765.0
608.05,156.4,770.31,-53812.5,-12442.5,-200655.0
656.6,184.83,754.33,-92015.0,23992.5,-261887.5
682.35,196.3,739.2,-126490.0,36785.0,-307842.5
687.35,191.3,731.51,-130270.0,35980.0,-332937.5
675.64,174.22,729.07,-117040.0,26425.0,-350087.5
648.8,145.91,730.17,-105105.0,19302.5,-369092.5
603.41,105.65,736.03,-100187.5,16835.0,-382952.5
536.31,55.51,747.49,-90667.5,15032.5,-377965.0
443.59,-1.46,762.74,-79852.5,8942.5,-342422.5
324.64,-60.76,781.78,-65135.0,-7770.0,-266070.0
189.83,-116.51,805.93,-38237.5,-40110.0,-159565.0
60.88,-164.58,835.09,-507.5,-62580.0,-47722.5
-43.31,-203.86,862.91,26285.0,-46025.0,45972.5
-121.02,-234.12,882.06,27335.0,-11077.5,115552.5
-180.07,-256.2,895.48,29820.0,-3710.0,167440.0
-223.26,-273.16,907.07,52780.0,-18970.0,213220.0
-251.32,-284.38,915.73,79992.5,-32340.0,255167.5
-263.03,-285.85,919.03,96985.0,-38797.5,286352.5
-258.64,-278.89,918.17,99977.5,-35280.0,304692.5
-242.54,-267.79,916.34,98542.5,-23940.0,327512.5
-213.5,-253.52,913.41,103827.5,-14997.5,352450.0
-158.97,-229.6,904.75,102900.0,-17745.0,355197.5
-65.88,-188.98,891.09,90720.0,-13702.5,305217.5
59.78,-130.05,875.84,66745.0,20807.5,206867.5
187.51,-60.27,856.93,26687.5,61372.5,89162.5
285.36,7.32,837.9,-10762.5,63035.0,-5810.0
351.85,66.73,825.57,-15855.0,25340.0,-61110.0
404.67,118.34,818.13,-3377.5,-4462.5,-98665.0
449.69,160.55,805.93,-9870.0,-1050.0,-132475.0
483.49,193.0,786.53,-44590.0,11952.5,-159425.0
505.08,215.82,767.99,-81305.0,21070.0,-183802.5
513.01,226.92,758.47,-98875.0,25322.5,-197942.5
508.98,228.14,758.35,-98052.5,25777.5,-208617.5
493.37,220.94,763.35,-91507.5,21210.0,-219555.0
466.77,207.16,772.02,-84052.5,10132.5,-226642.5
431.03,186.9,784.09,-75022.5,3570.0,-231595.0
382.71,157.75,799.34,-73237.5,3360.0,-226415.0
318.79,120.05,820.08,-65870.0,87.5,-209510.0
237.17,75.15,846.68,-46777.5,-7315.0,-180442.5
140.3,25.86,876.69,-17797.5,-20877.5,-130777.5
36.97,-23.55,907.92,13370.0,-26460.0,-66167.5
-62.22,-68.81,933.54,33722.5,-14070.0,5355.0
-147.74,-106.38,948.55,35140.0,4287.5,70472.5
-215.33,-135.18,955.99,31167.5,12390.0,121432.5
-265.23,-156.04,960.02,35910.0,10115.0,160072.5
-299.51,-170.56,960.38,42735.0,3955.0,189070.0
-319.88,-179.95,956.48,46060.0,-2187.5,213272.5
-326.23,-184.22,948.31,42682.5,-1785.0,231647.5
-318.91,-183.12,937.2,30975.0,2415.0,243215.0
-295.24,-175.19,925.86,17850.0,7052.5,247957.5
-251.56,-158.48,917.2,7752.5,19442.5,235935.0
-191.78,-131.03,909.75,-1102.5,38395.0,207567.5
-126.15,-94.31,901.82,-12827.5,41107.5,174387.5
-56.36,-50.26,896.58,-21770.0,32305.0,150430.0
24.16,0.98,896.46,-28297.5,32042.5,123235.0
117.0,57.58,900.12,-36505.0,39112.5,77087.5
211.43,114.19,906.83,-39340.0,35735.0,14175.0
293.53,163.97,917.32,-27440.0,16310.0,-45867.5
358.68,203.86,928.91,-4252.5,-4515.0,-90545.0
408.46,233.63,935.13,6632.5,-9100.0,-125037.5
443.96,252.91,934.52,752.5,-52.5,-153947.5
463.97,261.32,929.64,-12705.0,9030.0,-178202.5
467.99,258.64,924.15,-27510.0,12022.5,-196752.5
455.79,245.34,921.83,-35752.5,12670.0,-208547.5
428.46,222.53,924.52,-34597.5,11760.0,-209562.5
387.35,192.27,930.49,-24937.5,11567.5,-203140.0
332.82,156.04,936.84,-15802.5,9415.0,-192780.0
265.11,116.27,944.16,-5092.5,525.0,-179725.0
185.68,73.69,952.7,7332.5,-6650.0,-156712.5
96.75,30.38,961.12,18602.5,-11392.5,-120225.0
3.66,-11.59,969.41,31430.0,-17780.0,-73797.5
-87.84,-50.26,975.27,43102.5,-23835.0,-26810.0
-172.87,-84.18,976.49,43487.5,-26582.5,18095.0
-247.78,-113.22,974.9,37432.5,-20422.5,64522.5
-309.15,-137.37,971.73,35315.0,-15907.5,114292.5
-354.17,-155.92,966.0,34055.0,-11357.5,160300.0
-381.37,-168.36,956.85,32025.0,-9817.5,197750.0
-391.25,-174.83,944.04,28192.5,-15645.0,222302.5
-384.67,-175.19,929.4,22155.0,-23590.0,235637.5
-361.97,-169.21,915.73,13002.5,-25795.0,243460.0
-321.35,-155.92,907.44,3832.5,-21472.5,249707.5
-252.91,-132.25,908.29,490.0,-2520.0,248150.0
-152.62,-94.06,915.12,0.0,37520.0,211207.5
-39.65,-43.19,919.39,-12495.0,48720.0,141785.0
65.88,13.42,926.47,-19232.5,12127.5,64190.0
158.11,67.34,943.67,-70.0,-27667.5,3675.0
237.41,114.44,963.56,23415.0,-34405.0,-34300.0
305.98,154.21,975.63,32830.0,-18200.0,-60182.5
363.56,187.27,976.12,29102.5,490.0,-84945.0
408.46,213.99,966.97,15557.5,7297.5,-112577.5
441.52,233.14,953.92,262.5,6142.5,-141592.5
462.5,243.63,941.35,-10920.0,4305.0,-168035.0
469.7,245.22,930.49,-18602.5,472.5,-189437.5
462.99,237.66,921.95,-26320.0,-2135.0,-203402.5
441.88,221.55,915.73,-35700.0,420.0,-210735.0
405.41,196.66,912.56,-44257.5,1820.0,-212992.5
350.51,162.75,913.9,-45622.5,-1977.5,-208635.0
273.28,121.51,923.54,-36102.5,-14770.0,-188090.0
178.97,75.64,936.11,-6807.5,-30817.5,-147997.5
77.96,29.04,944.77,2712.5,-40442.5,-97212.5
-21.84,-14.64,953.06,-1435.0,-39392.5,-43557.5
-113.83,-53.19,962.82,-5040.0,-29732.5,8120.0
-193.13,-84.67,973.44,5757.5,-26337.5,57400.0
-255.47,-108.21,980.03,26827.5,-31045.0,102427.5
-298.41,-123.95,979.66,38622.5,-36627.5,140070.0
-321.71,-132.86,973.44,40232.5,-35875.0,168035.0
-326.84,-135.18,962.82,32725.0,-35437.5,185395.0
-315.0,-132.0,951.97,25287.5,-37327.5,195352.5
-286.94,-123.59,943.06,24202.5,-41562.5,196665.0
-244.98,-109.8,935.5,28805.0,-51590.0,189192.5
-191.42,-89.3,928.91,35385.0,-63962.5,177992.5
-124.44,-61.0,922.32,37170.0,-69895.0,161315.0
-40.99,-24.77,915.73,31955.0,-61127.5,135870.0
56.36,20.25,909.51,14962.5,-30730.0,103757.5
158.23,71.74,904.75,-4497.5,-910.0,61110.0
254.61,123.95,900.24,-11112.5,1102.5,14910.0
339.4,172.02,894.63,-8820.0,-9695.0,-31570.0
408.09,213.01,887.06,-13790.0,-14577.5,-78487.5
460.06,244.0,877.18,-31920.0,-19127.5,-105560.0
496.78,263.76,866.44,-50295.0,-13247.5,-126980.0
520.45,272.55,858.15,-60357.5,-3762.5,-140560.0
533.63,271.57,854.12,-65590.0,9450.0,-143150.0
535.58,263.28,853.27,-69160.0,32462.5,-143605.0
524.84,247.42,855.46,-72082.5,52587.5,-146982.5
499.71,222.53,859.73,-74970.0,63000.0,-146947.5
456.65,189.59,864.25,-77350.0,66027.5,-140035.0
393.08,148.35,869.49,-75110.0,67410.0,-124477.5
309.39,99.19,877.18,-66377.5,58467.5,-88235.0
211.91,49.9,890.23,-50732.5,38587.5,-36172.5
112.85,7.32,905.73,-16747.5,34090.0,15260.0
23.79,-26.11,916.71,7157.5,22785.0,57802.5
-49.65,-47.09,923.66,18515.0,8802.5,81462.5
-106.38,-59.66,925.25,24167.5,1785.0,92470.0
-147.01,-70.15,922.32,16747.5,-8452.5,104842.5
-173.61,-78.2,920.37,14525.0,-20527.5,117792.5
-188.61,-83.94,921.1,17587.5,-27282.5,131040.0
-192.76,-89.06,922.69,19670.0,-25672.5,150062.5
-184.1,-91.87,923.3,18235.0,-21962.5,166407.5
-161.28,-90.52,923.17,15365.0,-20912.5,173145.0
-122.61,-82.59,924.27,14647.5,-19705.0,171797.5
-64.42,-64.66,927.2,14577.5,-15872.5,159180.0
13.91,-36.36,931.35,9047.5,2520.0,133682.5
103.21,-0.61,935.74,-5775.0,30747.5,94132.5
189.22,38.19,942.21,-18637.5,39515.0,47477.5
267.67,76.74,953.19,-12530.0,27615.0,2222.5
339.16,111.63,964.29,1032.5,25042.5,-38202.5
399.92,140.18,970.39,3587.5,32760.0,-70105.0
447.86,162.63,972.46,3657.5,34597.5,-97790.0
481.9,177.14,973.07,6020.0,36645.0,-122447.5
502.52,183.73,970.51,3062.5,45867.5,-141627.5
509.11,182.02,963.07,-14840.0,61302.5,-162347.5
498.13,170.56,954.53,-31272.5,71050.0,-175560.0
469.7,150.79,947.82,-35070.0,69020.0,-177415.0
427.61,125.05,941.84,-34860.0,63997.5,-169137.5
375.52,96.75,935.62,-21472.5,40267.5,-159110.0
312.08,65.88,931.35,-10325.0,17447.5,-152460.0
234.0,30.13,931.84,-6545.0,2082.5,-138687.5
143.72,-9.76,937.33,-1610.0,-5162.5,-107660.0
49.17,-50.26,944.04,9345.0,-13107.5,-66325.0
-44.16,-88.57,949.4,17657.5,-17202.5,-19407.5
-131.03,-122.49,952.7,21945.0,-15977.5,33302.5
-204.47,-149.08,953.06,23292.5,-15347.5,83282.5
-260.23,-167.38,949.89,20737.5,-15190.0,122412.5
-297.56,-179.83,943.3,15925.0,-15837.5,152267.5
-318.18,-187.64,934.03,15120.0,-24395.0,174335.0
-323.42,-191.54,925.13,19792.5,-37625.0,190225.0
-311.59,-190.08,918.78,25865.0,-46567.5,198975.0
-278.4,-181.29,915.73,28227.5,-45465.0,200235.0
-221.55,-162.87,915.49,18427.5,-20755.0,192395.0
-143.11,-133.83,917.68,-7735.0,17115.0,169995.0
-52.46,-95.77,924.03,-33425.0,34352.5,128712.5
38.92,-52.46,938.18,-35175.0,19145.0,75337.5
125.78,-9.88,959.9,-12705.0,-2642.5,22855.0
205.94,28.79,981.86,11497.5,-8627.5,-19057.5
277.67,62.95,996.98,19687.5,-1802.5,-54862.5
337.7,91.74,1005.4,18270.0,7227.5,-89565.0
382.59,113.09,1009.06,18550.0,11987.5,-120365.0
412.12,126.39,1008.45,19967.5,13772.5,-143692.5
427.85,132.0,1003.94,19635.0,16292.5,-161140.0
430.9,129.56,995.4,13737.5,23275.0,-173810.0
419.8,118.83,983.69,-17.5,30905.0,-179707.5
392.6,100.53,973.07,-11077.5,34247.5,-180827.5
346.97,76.01,965.14,-14350.0,29085.0,-181282.5
280.97,45.26,959.77,-10395.0,13510.0,-176102.5
195.93,8.91,959.04,1032.5,-16082.5,-155785.0
97.6,-30.74,962.58,11357.5,-34002.5,-119140.0
-7.69,-71.98,968.56,9660.0,-27247.5,-65817.5
-111.75,-112.48,976.37,5057.5,-7770.0,-35.0
-204.72,-147.38,982.34,11217.5,2992.5,64732.5
-279.62,-173.36,982.71,23187.5,-4760.0,114887.5
-334.65,-191.42,977.59,32567.5,-15295.0,152985.0
-370.03,-203.25,968.07,35962.5,-23047.5,182560.0
-385.89,-210.08,955.38,33372.5,-24815.0,203385.0
-383.57,-213.01,941.47,26670.0,-22610.0,216772.5
-364.29,-211.91,928.18,14402.5,-18480.0,224525.0
-326.96,-204.96,919.88,1312.5,-14647.5,228847.5
-266.45,-188.12,920.25,-6685.0,-4410.0,220990.0
-181.54,-160.31,926.96,-15085.0,15802.5,194460.0
-80.28,-123.34,937.2,-25235.0,29802.5,152635.0
26.84,-80.03,952.33,-29837.5,28682.5,99557.5
129.08,-35.62,973.56,-17640.0,12022.5,41300.0
219.84,5.25,996.86,7175.0,-6755.0,-10115.0
296.7,40.99,1014.8,27335.0,-11515.0,-49945.0
358.44,70.76,1023.95,31815.0,-1102.5,-82967.5
402.6,93.09,1025.53,28385.0,13772.5,-108237.5
428.46,107.73,1021.14,25497.5,23450.0,-126472.5
438.96,115.66,1012.11,22120.0,28437.5,-140315.0
437.0,117.49,999.67,15715.0,28525.0,-150062.5
424.93,113.95,986.0,5057.5,29995.0,-154857.5
402.6,106.99,973.32,-5950.0,32795.0,-158130.0
367.95,97.11,961.6,-13072.5,30117.5,-160562.5
320.62,83.69,951.6,-15960.0,18847.5,-158095.0
262.18,65.88,944.77,-17535.0,10062.5,-149607.5
191.54,44.41,941.72,-20755.0,6335.0,-137445.0
108.46,19.03,943.3,-19582.5,-770.0,-116375.0
16.96,-10.74,947.45,-11567.5,-9222.5,-82985.0
-78.2,-42.7,952.58,-1347.5,-17272.5,-41422.5
-171.41,-74.18,957.33,9082.5,-22627.5,7682.5
-254.49,-102.36,960.38,19390.0,-26162.5,62475.0
-319.76,-124.07,958.92,24867.5,-26775.0,111387.5
-364.66,-139.32,953.19,23432.5,-28070.0,148295.0
-389.42,-149.33,944.65,23152.5,-32935.0,174492.5
-396.01,-154.82,934.76,22487.5,-38517.5,191590.0
-385.76,-156.16,924.64,18620.0,-40250.0,202755.0
-359.41,-152.99,916.22,9747.5,-37117.5,210280.0
-314.64,-143.47,913.29,3290.0,-31202.5,214200.0
-245.46,-123.83,916.95,3657.5,-14507.5,204207.5
-150.43,-92.84,922.81,-1365.0,17535.0,172165.0
-42.82,-55.02,927.08,-20212.5,41265.0,122692.5
61.61,-14.64,935.25,-33582.5,35472.5,69405.0
157.87,24.64,952.09,-22925.0,10342.5,15032.5
243.63,59.54,973.32,-1015.0,-5407.5,-30327.5
316.1,88.82,992.1,12932.5,-1942.5,-64960.0
374.17,112.73,1004.18,17797.5,11375.0,-93642.5
417.48,130.66,1008.21,16047.5,21787.5,-119227.5
446.03,141.52,1006.26,11217.5,27072.5,-142327.5
460.55,144.2,1001.01,6457.5,29715.0,-161682.5
460.43,139.2,994.18,1522.5,31185.0,-175087.5
446.15,128.1,985.88,-157.5,28087.5,-180915.0
418.7,112.73,976.0,-4375.0,26670.0,-182262.5
376.0,92.96,964.29,-14175.0,28542.5,-181842.5
313.66,68.08,952.09,-23555.0,19180.0,-178517.5
231.31,38.43,944.4,-20877.5,-9765.0,-163800.0
135.66,5.86,943.79,-6947.5,-36557.5,-134452.5
32.94,-27.33,947.45,1802.5,-43050.0,-93362.5
-71.25,-60.02,953.55,2100.0,-36015.0,-41807.5
-169.58,-90.77,960.02,1732.5,-23240.0,17202.5
-254.25,-117.12,964.29,7437.5,-19407.5,74130.0
-319.15,-137.98,964.9,16432.5,-28105.0,121677.5
-361.36,-152.74,963.31,23642.5,-36680.0,158427.5
-380.64,-161.28,960.26,25777.5,-34790.0,179182.5
-380.88,-164.46,955.75,23345.0,-30065.0,187845.0
-366.12,-163.97,951.36,19250.0,-24465.0,192675.0
-337.09,-159.82,948.79,13685.0,-19075.0,198275.0
-290.73,-150.67,948.79,12250.0,-13877.5,200340.0
-225.7,-134.32,950.5,10745.0,-5425.0,192220.0
-144.33,-110.04,953.55,6510.0,5600.0,171062.5
-50.63,-78.32,957.94,4672.5,8995.0,134085.0
49.17,-40.38,963.31,7525.0,5320.0,85207.5
146.16,-0.37,966.97,9695.0,-297.5,33320.0
234.0,38.31,968.19,7315.0,-2485.0,-12250.0
308.66,72.96,967.46,980.0,6212.5,-49245.0
367.22,100.89,965.26,-7945.0,20195.0,-77227.5
410.29,121.51,960.87,-12075.0,30555.0,-99207.5
440.42,135.79,951.84,-17430.0,38080.0,-120977.5
456.77,142.74,939.89,-30135.0,41475.0,-142240.0
458.35,140.79,930.25,-40687.5,41842.5,-159127.5
445.91,130.05,925.37,-43837.5,39882.5,-168927.5
420.29,112.36,925.0,-43470.0,39270.0,-171727.5
381.74,90.04,927.81,-38430.0,38115.0,-168472.5
329.89,65.15,932.32,-28385.0,31202.5,-158777.5
266.2,39.89,937.69,-20125.0,23030.0,-142835.0
193.0,14.64,944.52,-17412.5,16712.5,-123917.5
112.73,-11.22,952.21,-12180.0,10290.0,-101167.5
28.06,-37.33,958.92,-5652.5,700.0,-75547.5
-58.8,-63.44,964.17,-2957.5,-5250.0,-45062.5
-144.33,-88.82,968.92,6842.5,-14210.0,-4270.0
-222.65,-111.14,971.97,17640.0,-21840.0,41387.5
-287.07,-128.71,972.34,24780.0,-26985.0,84280.0
-334.77,-141.03,969.53,26442.5,-29067.5,117705.0
-366.24,-149.57,963.8,26495.0,-32900.0,141662.5
-382.84,-156.16,956.48,26565.0,-40005.0,158375.0
-386.25,-162.02,948.06,26670.0,-45360.0,171045.0
-379.79,-167.87,939.64,26302.5,-47757.5,183505.0
-366.0,-173.97,933.3,26302.5,-48965.0,200585.0
-339.16,-178.61,931.47,28087.5,-45535.0,225277.5
-286.21,-176.78,934.76,25427.5,-21945.0,239435.0
-202.52,-162.99,938.42,14367.5,11270.0,221480.0
-99.31,-135.66,941.11,-1050.0,22977.5,171832.5
9.39,-99.55,945.99,-2607.5,2712.5,109917.5
115.66,-60.02,954.65,11497.5,-23432.5,53760.0
217.4,-20.74,963.92,23117.5,-24552.5,9730.0
312.81,16.96,967.46,21980.0,-5775.0,-29347.5
397.11,51.12,961.97,5652.5,12057.5,-72310.0
462.99,78.45,951.84,-11375.0,16187.5,-119297.5
506.06,93.94,944.28,-17150.0,15137.5,-157395.0
527.04,97.6,938.91,-18795.0,19022.5,-177292.5
530.58,93.21,933.54,-24412.5,26775.0,-188230.0
519.72,82.47,928.42,-31500.0,31762.5,-197347.5
495.2,66.61,923.91,-38745.0,31115.0,-206220.0
455.55,46.12,920.73,-42997.5,23362.5,-215180.0
397.48,19.28,921.34,-38412.5,9870.0,-218627.5
318.42,-14.03,926.1,-28752.5,-2887.5,-205887.5
220.21,-51.0,933.3,-20825.0,-13195.0,-170292.5
110.78,-88.21,944.28,-13650.0,-16642.5,-111912.5
2.07,-122.24,956.85,-6282.5,-7210.0,-45762.5
-98.09,-151.04,967.22,-875.0,-2992.5,10535.0
-185.44,-174.34,975.51,12040.0,-13492.5,57592.5
-255.59,-193.0,980.39,26390.0,-26075.0,101272.5
-305.0,-206.3,980.64,31377.5,-33845.0,139055.0
-333.3,-214.84,977.22,31430.0,-37222.5,164587.5
-343.67,-219.97,971.12,30607.5,-41877.5,177870.0
-339.77,-222.89,964.04,33092.5,-49910.0,185465.0
-321.84,-223.38,957.7,36277.5,-52220.0,196070.0
-284.38,-218.87,953.8,35735.0,-42017.5,209527.5
-220.7,-205.33,951.11,30922.5,-20860.0,211190.0
-130.91,-180.44,947.82,20457.5,2432.5,188142.5
-23.3,-144.94,944.77,10850.0,12162.5,143447.5
90.52,-102.48,942.82,6177.5,8715.0,86047.5
199.23,-58.19,941.96,4865.0,-1295.0,26810.0
295.73,-17.45,941.47,5267.5,-5495.0,-20790.0
377.35,17.93,939.16,-332.5,4532.5,-58117.5
442.13,46.48,933.79,-11532.5,16450.0,-92295.0
488.24,65.64,928.18,-19337.5,23275.0,-122377.5
515.57,75.15,923.05,-22347.5,27247.5,-144812.5
525.58,76.25,917.56,-24447.5,31255.0,-159582.5
520.7,71.25,912.19,-27440.0,28770.0,-168752.5
504.96,62.34,907.56,-27860.0,18690.0,-173355.0
480.92,51.24,903.53,-27352.5,12652.5,-175140.0
448.35,37.21,900.24,-36505.0,20825.0,-172095.0
406.14,19.03,900.12,-49437.5,31622.5,-165130.0
350.14,-4.39,906.22,-58590.0,39550.0,-163257.5
273.16,-35.87,919.15,-55212.5,28840.0,-162102.5
173.97,-76.37,939.4,-34807.5,-1085.0,-138022.5
61.98,-121.15,965.87,-7105.0,-22225.0,-85487.5
-49.9,-164.09,992.35,15557.5,-18760.0,-17902.5
-150.43,-199.59,1011.62,28945.0,-12057.5,48142.5
-231.31,-224.6,1021.63,41650.0,-18900.0,100555.0
-288.77,-240.71,1022.97,51607.5,-30275.0,138495.0
-323.54,-250.34,1017.85,54757.5,-38605.0,163030.0
-339.4,-256.08,1008.21,53130.0,-41597.5,178150.0
-340.14,-259.13,995.52,48545.0,-40967.5,187635.0
-328.18,-260.35,980.64,45150.0,-39707.5,192482.5
-307.07,-259.13,963.56,40880.0,-38867.5,194932.5
-276.82,-254.37,947.33,37100.0,-42962.5,197540.0
-231.31,-242.9,933.67,38342.5,-43855.0,197820.0
-165.19,-222.77,919.27,34965.0,-33005.0,188772.5
-74.54,-194.83,904.87,14350.0,-11777.5,172357.5
40.5,-158.6,897.92,-16835.0,16975.0,142835.0
167.26,-114.44,901.09,-34685.0,34002.5,89652.5
289.14,-68.2,912.68,-28420.0,18952.5,23730.0
397.48,-25.99,928.05,-3920.0,-4252.5,-37047.5
488.49,9.88,940.01,10902.5,-4882.5,-84227.5
559.0,37.58,944.77,8592.5,12810.0,-117547.5
609.51,55.88,942.08,-1557.5,31745.0,-142152.5
641.23,64.05,935.01,-14840.0,45675.0,-164937.5
654.65,61.98,927.2,-22487.5,48002.5,-185850.0
649.77,51.48,920.37,-22365.0,43137.5,-201897.5
628.18,34.4,913.78,-22470.0,42280.0,-208757.5
590.48,11.83,906.7,-30415.0,48247.5,-209860.0
534.12,-15.98,901.09,-38605.0,44625.0,-207847.5
457.26,-47.95,900.97,-37100.0,23992.5,-199850.0
361.12,-82.84,907.07,-24430.0,1155.0,-180407.5
252.66,-119.32,917.81,-10972.5,-12530.0,-137392.5
141.89,-154.09,931.35,-2642.5,-10377.5,-83387.5
34.89,-184.83,943.91,805.0,-280.0,-29260.0
-63.93,-209.84,953.8,5267.5,-2467.5,19722.5
-149.08,-228.99,961.97,15225.0,-15627.5,65520.0
-215.94,-243.76,968.31,24535.0,-21770.0,107887.5
-261.45,-254.61,971.61,27317.5,-18445.0,143570.0
-285.48,-261.69,971.36,27072.5,-13562.5,167667.5
-289.63,-264.62,968.07,25707.5,-13842.5,180950.0
-277.79,-263.76,963.43,27527.5,-20195.0,188825.0
-247.78,-256.93,960.51,33880.0,-26232.5,196385.0
-195.57,-241.07,958.92,40950.0,-18235.0,195335.0
-122.61,-215.45,955.75,35437.5,1680.0,183645.0
-31.48,-179.46,952.21,18847.5,20877.5,156537.5
71.49,-134.44,950.38,2712.5,30170.0,112367.5
175.19,-85.03,950.87,-6510.0,21857.5,54687.5
271.21,-36.11,955.38,-1050.0,3255.0,-2870.0
355.14,7.81,960.26,10570.0,-3272.5,-50470.0
423.71,43.92,959.9,10045.0,5705.0,-87167.5
474.7,70.88,954.16,-315.0,18357.5,-115832.5
507.89,88.57,945.62,-11760.0,28560.0,-139195.0
523.38,96.26,936.11,-23082.5,33040.0,-158375.0
521.55,93.7,927.08,-33582.5,32847.5,-171027.5
503.74,82.23,922.08,-38535.0,30170.0,-176872.5
471.41,64.54,920.61,-34790.0,27422.5,-176715.0
424.56,41.97,920.86,-33967.5,24132.5,-175472.5
360.88,14.15,924.03,-30082.5,12897.5,-166845.0
282.92,-17.08,932.08,-19845.0,-3937.5,-145547.5
196.54,-49.53,943.67,-8435.0,-11427.5,-115325.0
106.14,-81.62,956.24,-157.5,-15855.0,-78225.0
16.71,-110.9,969.41,9362.5,-19407.5,-38220.0
-66.61,-136.88,981.0,15767.5,-15592.5,4445.0
-140.54,-158.36,989.18,20947.5,-14420.0,46305.0
-202.03,-174.46,993.93,28385.0,-21210.0,81042.5
-250.1,-186.05,995.28,35385.0,-31115.0,110215.0
-283.28,-193.98,993.57,40197.5,-37520.0,134260.0
-301.58,-199.35,990.03,43295.0,-38622.5,154542.5
-306.59,-203.5,987.1,47110.0,-33705.0,175280.0
-299.75,-205.94,985.27,51415.0,-21122.5,199815.0
-276.82,-202.28,984.05,54285.0,-6685.0,221410.0
-227.29,-188.49,983.81,56455.0,4690.0,228900.0
-142.98,-162.26,983.44,55335.0,31570.0,211557.5
-31.48,-122.0,976.61,37660.0,62615.0,161892.5
84.79,-72.83,964.04,6072.5,60077.5,88742.5
189.71,-23.42,956.11,-13265.0,23100.0,15522.5
279.26,19.03,959.04,-5022.5,-6685.0,-37712.5
354.78,53.56,966.12,10220.0,-7140.0,-71837.5
416.51,81.01,967.95,7420.0,13895.0,-97650.0
464.09,101.5,963.8,-5827.5,31482.5,-121887.5
498.0,114.56,957.58,-14630.0,35857.5,-147560.0
516.55,119.19,950.62,-19775.0,36365.0,-172585.0
516.06,114.68,943.3,-25480.0,33652.5,-190330.0
497.52,102.24,936.72,-27265.0,25847.5,-198240.0
461.53,82.47,930.49,-26110.0,18392.5,-200707.5
403.58,56.36,923.66,-30537.5,9467.5,-200760.0
320.01,24.77,921.83,-32480.0,-10552.5,-189490.0
218.38,-11.96,928.42,-19670.0,-31045.0,-152530.0
112.12,-50.14,939.64,-8470.0,-31465.0,-100100.0
7.81,-85.77,952.09,-6580.0,-18497.5,-51607.5
-93.21,-117.49,963.8,-1960.0,-14192.5,-6142.5
-185.81,-144.57,974.29,11340.0,-26757.5,41877.5
-260.35,-165.92,982.95,28525.0,-36872.5,89180.0
-312.69,-180.93,987.96,35910.0,-34282.5,130147.5
-343.31,-190.81,989.05,35787.5,-28017.5,160615.0
-354.29,-196.18,987.22,37275.0,-25445.0,179112.5
-349.53,-198.62,982.95,37065.0,-22977.5,187460.0
-332.57,-198.74,977.46,39690.0,-22995.0,192552.5
-302.68,-194.59,972.1,43995.0,-28192.5,197802.5
-251.32,-181.66,969.66,49840.0,-25900.0,202195.0
-171.04,-156.16,968.56,50085.0,-1715.0,191152.5
-64.42,-117.49,963.31,37100.0,27720.0,157885.0
55.14,-68.44,953.67,14560.0,36522.5,102025.0
169.7,-15.25,946.23,-490.0,16677.5,33547.5
269.01,34.4,945.13,6212.5,-8522.5,-25287.5
351.73,77.23,945.01,18392.5,-14035.0,-67252.5
417.61,112.97,938.67,17535.0,-3902.5,-99942.5
466.04,140.3,925.13,2275.0,9170.0,-126455.0
498.25,158.11,908.9,-16432.5,17710.0,-150622.5
514.47,165.19,893.16,-33162.5,20685.0,-172217.5
513.74,161.16,879.38,-49437.5,17955.0,-189035.0
496.3,147.01,871.32,-62125.0,11060.0,-197277.5
463.6,124.44,873.76,-64120.0,5442.5,-195352.5
418.22,97.23,882.91,-43767.5,-4410.0,-180127.5
362.71,70.03,891.82,-27877.5,-11707.5,-167580.0
288.9,39.53,901.82,-29960.0,-8102.5,-157167.5
193.25,1.22,916.83,-35962.5,-4620.0,-120837.5
86.86,-40.5,938.3,-34615.0,-1697.5,-69877.5
-19.4,-81.62,964.78,-20195.0,-332.5,-19022.5
-120.54,-119.07,991.74,3587.5,-3990.0,29067.5
-210.08,-150.18,1012.23,27842.5,-8575.0,76457.5
-281.7,-174.09,1022.85,39655.0,-11917.5,122220.0
-331.6,-191.54,1025.53,42840.0,-10745.0,162960.0
-358.44,-203.98,1022.36,41195.0,-5565.0,194372.5
-362.58,-211.79,1014.92,40670.0,-735.0,212135.0
-347.46,-213.99,1003.21,41597.5,3220.0,215932.5
-317.69,-209.72,987.71,37222.5,1085.0,209597.5
-275.6,-199.35,972.83,32112.5,-6160.0,205065.0
-215.21,-181.9,963.8,30205.0,-5232.5,206482.5
-126.39,-151.77,958.92,27755.0,16397.5,194250.0
-14.03,-108.09,951.97,9170.0,41352.5,150762.5
105.29,-56.0,945.99,-16467.5,40232.5,87850.0
219.36,-3.05,948.06,-20580.0,16537.5,17762.5
318.79,43.31,956.36,-3727.5,-3500.0,-39480.0
400.4,81.25,963.07,7612.5,-4340.0,-80675.0
463.11,110.65,964.29,5145.0,7297.5,-115780.0
505.69,129.69,961.24,-1522.5,17360.0,-142800.0
529.24,138.59,953.67,-8750.0,24342.5,-164832.5
533.99,137.13,942.82,-21262.5,26302.5,-185272.5
518.5,124.2,933.79,-33320.0,22190.0,-197610.0
482.02,101.75,930.13,-37852.5,14577.5,-200532.5
424.07,72.1,930.86,-36190.0,4322.5,-192692.5
345.02,37.58,937.08,-29400.0,-6650.0,-173897.5
249.12,-0.49,948.92,-17727.5,-14315.0,-135765.0
145.67,-38.31,963.8,-7770.0,-10465.0,-89687.5
41.48,-71.98,979.29,5810.0,-9572.5,-41877.5
-57.58,-100.53,991.25,19652.5,-12005.0,6317.5
-145.06,-122.73,997.72,27895.0,-16590.0,53847.5
-215.33,-139.08,1000.03,33390.0,-20107.5,97475.0
-266.33,-149.82,999.18,37835.0,-19320.0,134802.5
-297.68,-154.7,994.42,38377.5,-18357.5,161280.0
-310.37,-154.94,986.74,36715.0,-16345.0,176120.0
-307.68,-152.87,978.07,31097.5,-10500.0,184765.0
-290.48,-147.62,970.51,25427.5,-2520.0,189332.5
-257.18,-136.52,964.53,22680.0,2327.5,185762.5
-209.11,-118.83,960.14,20737.5,4340.0,175927.5
-143.96,-94.18,958.43,18270.0,6667.5,163607.5
-54.66,-59.66,959.53,14805.0,17255.0,138950.0
52.95,-15.01,960.14,1907.5,31342.5,89040.0
160.92,33.18,960.51,-9625.0,28980.0,27947.5
257.91,78.2,962.95,-6177.5,10780.0,-28140.0
340.99,116.88,965.87,5057.5,-262.5,-72082.5
409.19,148.72,965.14,7735.0,8837.5,-108885.0
459.82,172.51,958.55,-1942.5,22750.0,-140700.0
492.27,186.54,947.94,-14332.5,28665.0,-167370.0
507.03,189.71,935.74,-24710.0,31430.0,-190277.5
503.74,180.8,923.54,-36400.0,35262.5,-207322.5
479.7,159.94,913.29,-50470.0,38167.5,-214550.0
433.34,129.93,907.44,-57977.5,34387.5,-214935.0
363.68,91.74,907.44,-56507.5,21805.0,-207550.0
272.79,45.63,913.29,-42927.5,3307.5,-182157.5
167.51,-3.78,923.78,-28875.0,-5740.0,-136132.5
56.85,-50.39,937.2,-15330.0,-7192.5,-79502.5
-49.29,-89.55,951.11,-1102.5,-4357.5,-21892.5
-144.45,-121.76,961.6,11847.5,-4620.0,24902.5
-225.82,-148.6,966.12,22645.0,-16852.5,76737.5
-288.16,-167.14,965.75,30730.0,-28087.5,118965.0
-330.01,-178.73,961.97,36942.5,-37520.0,151112.5
-353.07,-185.68,954.77,39865.0,-41422.5,176172.5
-357.7,-187.88,946.72,41387.5,-41072.5,195317.5
-342.58,-183.73,938.79,38290.0,-34002.5,208075.0
-304.02,-170.8,932.81,29557.5,-23170.0,209282.5
-240.22,-146.4,930.01,21227.5,-10255.0,192780.0
-154.82,-111.51,929.64,12460.0,2240.0,159845.0
-55.63,-68.56,930.62,70.0,10500.0,112087.5
46.24,-20.98,934.28,-10885.0,7070.0,53480.0
139.32,24.16,942.94,-9275.0,-4707.5,-1505.0
219.36,63.2,954.28,3150.0,-12005.0,-41422.5
287.8,96.26,962.7,12180.0,-8662.5,-73657.5
342.82,122.12,965.51,7280.0,6457.5,-102042.5
383.45,139.93,964.41,-3010.0,20055.0,-124040.0
411.63,150.55,961.6,-7752.5,27562.5,-145320.0
427.73,154.21,956.11,-12407.5,32427.5,-166915.0
429.68,149.69,948.92,-20020.0,35105.0,-185377.5
417.0,137.74,942.45,-23817.5,32042.5,-196070.0
391.13,119.8,937.2,-24307.5,28997.5,-198502.5
351.6,97.23,931.96,-26267.5,27825.0,-194827.5
295.73,70.27,926.59,-31850.0,26355.0,-190417.5
220.45,37.21,924.15,-34912.5,16415.0,-179112.5
126.88,-3.17,926.83,-29942.5,2677.5,-145985.0
24.64,-46.6,935.01,-22645.0,-3622.5,-91927.5
-75.15,-86.99,946.6,-8312.5,-2905.0,-34580.0
-166.04,-121.39,955.87,4217.5,-2607.5,15837.5
-244.85,-148.96,960.51,14035.0,-10482.5,58537.5
-309.64,-171.04,961.12,23975.0,-24832.5,93432.5
-361.12,-189.34,959.04,31342.5,-39620.0,123690.0
-400.16,-205.57,956.48,39217.5,-48457.5,153545.0
-427.0,-220.82,953.06,48090.0,-49087.5,187460.0
-439.57,-234.36,947.21,54075.0,-46620.0,222005.0
-434.69,-243.51,938.3,55212.5,-42612.5,248727.5
-409.68,-246.44,927.32,48912.5,-35752.5,261065.0
-363.8,-241.07,917.44,38080.0,-25900.0,260312.5
-295.73,-225.09,912.19,24220.0,-11952.5,247852.5
-203.62,-196.54,913.54,13037.5,3867.5,221637.5
-90.52,-156.77,920.61,3237.5,16117.5,178850.0
35.14,-107.12,932.57,-5425.0,21717.5,116725.0
158.6,-53.07,947.21,-3097.5,17202.5,41160.0
266.33,-4.03,959.77,9555.0,805.0,-23152.5
358.19,38.19,967.95,21367.5,-10010.0,-71330.0
436.27,74.54,970.63,23520.0,-4760.0,-114572.5
497.52,102.72,967.46,16117.5,14332.5,-151532.5
539.24,120.29,957.82,2485.0,34317.5,-181195.0
560.96,126.64,943.3,-15347.5,46165.0,-206045.0
562.91,122.73,926.96,-31920.0,50715.0,-228217.5
546.56,108.58,912.07,-44940.0,50645.0,-243670.0
513.74,85.52,901.09,-52377.5,48860.0,-250635.0
464.33,54.66,893.77,-54267.5,46130.0,-250355.0
395.77,16.1,889.26,-48282.5,35157.5,-238437.5
309.15,-26.72,888.4,-36645.0,14262.5,-215530.0
206.3,-71.0,891.94,-22995.0,-6650.0,-179182.5
92.23,-116.14,900.73,-15137.5,-18655.0,-117442.5
-19.89,-157.62,914.51,-10027.5,-11077.5,-44765.0
-120.54,-191.3,929.64,-840.0,35.0,17272.5
-206.3,-217.04,940.86,14157.5,-5827.5,66307.5
-274.13,-235.34,946.23,29190.0,-24482.5,103705.0
-324.28,-247.29,947.45,40897.5,-39865.0,133962.5
-358.44,-254.49,946.23,48545.0,-48422.5,160562.5
-378.69,-258.4,943.79,55877.5,-49000.0,185342.5
-386.98,-259.98,939.77,61985.0,-46095.0,208320.0
-383.81,-259.37,933.06,67620.0,-46007.5,227727.5
-368.81,-255.35,923.78,68810.0,-48265.0,243635.0
-338.31,-245.71,914.76,66080.0,-49367.5,255010.0
-282.55,-227.77,909.88,61390.0,-39620.0,254660.0
-190.32,-195.44,909.14,50470.0,-7262.5,227972.5
-73.2,-147.86,907.92,29365.0,33215.0,165462.5
43.19,-93.21,904.75,980.0,37905.0,91910.0
147.74,-39.89,907.19,-9572.5,9380.0,24097.5
241.19,6.83,916.95,6142.5,-17342.5,-25602.5
326.35,48.8,925.49,20842.5,-18935.0,-66377.5
401.38,87.11,925.74,16275.0,-1050.0,-109095.0
458.84,117.61,917.81,332.5,19320.0,-150570.0
494.83,137.01,905.12,-14315.0,28210.0,-183732.5
510.81,145.91,889.75,-28682.5,30555.0,-209090.0
507.64,144.08,873.28,-47985.0,34090.0,-228235.0
486.54,131.64,858.27,-70542.5,38500.0,-241377.5
447.5,109.31,847.78,-88182.5,40845.0,-252035.0
389.06,76.86,842.9,-98035.0,41125.0,-254940.0
311.34,36.48,844.73,-97300.0,33495.0,-241062.5
213.99,-11.59,853.76,-78487.5,18077.5,-206692.5
101.75,-63.2,868.03,-53217.5,-4970.0,-145057.5
-13.66,-111.63,887.55,-26950.0,-20895.0,-75250.0
-123.34,-156.4,909.39,2380.0,-26092.5,7017.5
-215.45,-194.22,926.96,22925.0,-22907.5,91367.5
-281.82,-221.31,937.81,35052.5,-17027.5,155470.0
-325.13,-240.34,943.06,42017.5,-12512.5,201197.5
-349.53,-252.05,944.65,52692.5,-14770.0,237580.0
-356.12,-256.44,943.18,67462.5,-27457.5,265457.5
-344.04,-253.76,938.06,77945.0,-40827.5,282782.5
-309.88,-243.76,931.35,81480.0,-51817.5,285845.0
-248.03,-223.63,926.47,80307.5,-48457.5,267662.5
-155.43,-189.1,922.2,65625.0,-21437.5,223457.5
-43.19,-138.47,915.24,33197.5,17325.0,146825.0
61.12,-82.35,907.31,-1277.5,24255.0,63280.0
144.2,-32.82,906.34,-12232.5,-4865.0,6807.5
217.04,9.76,915.0,4462.5,-29995.0,-27632.5
287.43,48.56,923.91,17780.0,-24062.5,-58397.5
352.7,83.69,925.13,7700.0,4462.5,-90650.0
406.87,112.36,919.88,-13177.5,29697.5,-126192.5
446.03,131.76,913.05,-28175.0,39532.5,-162032.5
469.21,141.64,907.19,-34440.0,38010.0,-193952.5
476.04,142.37,902.56,-33162.5,34125.0,-220237.5
466.77,133.96,896.82,-32515.0,32252.5,-236337.5
440.42,117.73,890.6,-39655.0,33897.5,-240100.0
398.45,95.53,884.87,-48352.5,42227.5,-227850.0
342.21,67.95,880.72,-61285.0,53007.5,-210157.5
271.33,35.87,880.11,-63192.5,50400.0,-188895.0
188.49,0.98,883.04,-52360.0,31517.5,-169907.5
95.16,-36.84,890.11,-32130.0,5075.0,-144672.5
-5.86,-77.23,899.75,-7000.0,-17150.0,-96897.5
-106.38,-115.9,909.39,7420.0,-25217.5,-35560.0
-196.91,-148.35,918.17,15435.0,-19232.5,25130.0
-272.18,-173.36,923.66,19897.5,-14892.5,75687.5
-331.23,-191.42,925.37,27177.5,-22820.0,115255.0
-375.03,-204.72,923.78,37012.5,-37730.0,145792.5
-405.16,-214.35,919.64,46672.5,-50470.0,170030.0
-422.49,-221.8,913.29,51432.5,-55405.0,192710.0
-427.73,-227.65,904.75,49612.5,-53952.5,214812.5
-420.9,-231.07,895.11,45342.5,-51257.5,233642.5
-402.72,-231.07,885.48,37975.0,-48930.0,245892.5
-371.37,-226.31,879.01,29295.0,-48457.5,252367.5
-318.66,-214.84,881.08,26302.5,-41737.5,252420.0
-234.97,-192.27,890.48,26425.0,-13685.0,236390.0
-124.44,-154.82,900.6,13615.0,28245.0,190400.0
-7.56,-106.87,908.78,-1470.0,40127.5,125160.0
99.8,-56.61,918.17,-5372.5,11007.5,58782.5
196.66,-9.27,932.08,11602.5,-21227.5,2555.0
284.02,33.43,944.89,29890.0,-28087.5,-39672.5
360.88,72.96,949.89,30170.0,-15890.0,-77700.0
424.44,106.63,946.6,18130.0,2870.0,-115307.5
471.65,131.76,937.57,4165.0,15295.0,-149205.0
502.27,147.25,925.25,-9450.0,19127.5,-179970.0
516.67,153.23,911.46,-21297.5,18847.5,-205257.5
515.45,149.82,898.41,-32672.5,21822.5,-223037.5
498.25,137.74,886.45,-49385.0,32357.5,-229477.5
466.53,118.83,878.4,-64260.0,44520.0,-224175.0
422.49,95.16,874.62,-67025.0,50295.0,-207725.0
369.78,69.17,874.01,-67567.5,53060.0,-188177.5
309.88,42.21,875.96,-64680.0,53252.5,-176102.5
240.58,12.44,878.28,-57855.0,44520.0,-167580.0
160.06,-20.01,882.43,-51782.5,25077.5,-157710.0
66.61,-57.95,891.7,-35105.0,-2485.0,-129080.0
-35.26,-101.5,905.0,-12862.5,-10920.0,-80150.0
-136.88,-144.57,919.88,2747.5,-9117.5,-9730.0
-226.92,-179.22,932.32,17605.0,-10325.0,57277.5
-297.19,-203.86,938.91,29820.0,-18112.5,103110.0
-349.41,-222.53,940.25,37222.5,-25427.5,140280.0
-386.25,-236.44,937.69,41212.5,-30310.0,170187.5
-409.92,-247.05,932.57,45342.5,-38850.0,196245.0
-420.17,-254.61,925.74,54232.5,-52062.5,218295.0
-416.75,-258.4,916.22,61302.5,-62090.0,234062.5
-400.4,-258.03,903.9,60217.5,-65362.5,244807.5
-373.69,-253.52,891.33,51730.0,-67585.0,257232.5
-324.76,-241.32,884.74,37677.5,-67462.5,273402.5
-234.73,-214.35,890.36,31272.5,-35017.5,257407.5
-109.56,-170.56,900.97,30765.0,26425.0,203140.0
19.89,-116.39,905.36,10412.5,63070.0,128940.0
135.3,-60.63,909.75,-8610.0,36487.5,54215.0
239.12,-8.78,920.86,2992.5,-6702.5,-12075.0
332.57,36.11,931.96,22015.0,-17167.5,-63350.0
411.26,74.18,935.25,24010.0,-7350.0,-106102.5
470.68,103.7,930.49,12040.0,7420.0,-142502.5
510.2,122.98,920.61,-1015.0,18165.0,-171535.0
531.43,132.61,908.05,-12075.0,23695.0,-195387.5
537.29,134.08,893.41,-22435.0,26670.0,-215250.0
529.72,128.95,877.91,-33022.5,25130.0,-232155.0
509.35,116.75,862.17,-47810.0,28175.0,-246540.0
474.7,95.16,847.66,-69265.0,36172.5,-256182.5
421.14,62.34,837.77,-90545.0,42105.0,-260575.0
343.67,17.57,835.46,-97107.5,35350.0,-251982.5
242.29,-36.23,844.48,-86450.0,11497.5,-220045.0
122.0,-95.16,864.25,-49367.5,-18392.5,-154210.0
-1.34,-150.79,889.5,-15347.5,-34247.5,-73482.5
-111.26,-196.54,914.51,11462.5,-30642.5,-262.5
-202.52,-232.29,932.32,23327.5,-17272.5,64067.5
-273.77,-258.15,942.94,28735.0,-12092.5,113522.5
-325.98,-276.45,948.92,38622.5,-20247.5,152390.0
-359.53,-288.53,950.5,49892.5,-30520.0,179812.5
-376.98,-296.58,947.94,58222.5,-39830.0,196717.5
-382.23,-302.44,942.08,64487.5,-47407.5,210122.5
-377.35,-306.59,935.01,70770.0,-51502.5,225137.5
-360.14,-306.71,926.71,75530.0,-48772.5,237790.0
-325.13,-299.27,918.66,70840.0,-39182.5,244020.0
-263.89,-278.89,913.78,57855.0,-17885.0,241027.5
-173.0,-242.29,911.1,35647.5,15697.5,217910.0
-61.0,-190.81,910.61,3640.0,44135.0,171867.5
58.32,-130.05,916.34,-16712.5,47967.5,112980.0
174.58,-66.86,929.15,-12512.5,28122.5,49385.0
281.94,-6.83,944.77,7280.0,4742.5,-12897.5
376.98,45.99,955.38,24552.5,-6947.5,-67620.0
456.04,90.04,957.46,27020.0,-5670.0,-117670.0
514.23,122.37,952.58,20737.5,1032.5,-160440.0
550.95,141.89,941.96,12250.0,2922.5,-192745.0
569.62,150.3,927.32,1487.5,367.5,-221655.0
571.94,147.86,910.12,-14665.0,1242.5,-247677.5
557.17,133.71,891.94,-37957.5,7315.0,-267435.0
525.09,108.34,876.69,-62510.0,17902.5,-275800.0
474.82,73.2,866.69,-80517.5,30677.5,-275905.0
403.21,28.67,862.3,-91612.5,39865.0,-266297.5
308.42,-24.4,866.2,-82285.0,31272.5,-239505.0
194.22,-82.72,877.79,-56000.0,3202.5,-184747.5
70.03,-140.18,895.85,-22627.5,-23170.0,-114887.5
-51.61,-193.25,916.95,7402.5,-36557.5,-34807.5
-157.62,-239.36,935.5,20317.5,-21665.0,49245.0
-240.71,-274.62,948.06,20492.5,17.5,118422.5
-301.58,-299.75,955.02,22190.0,6037.5,168192.5
-342.82,-317.32,957.33,31360.0,-2467.5,205432.5
-366.12,-328.91,956.24,43977.5,-16432.5,233257.5
-372.71,-335.5,951.6,53760.0,-26547.5,254712.5
-364.05,-336.48,943.79,55755.0,-31255.0,266752.5
-343.55,-331.72,933.91,53672.5,-34930.0,273560.0
-308.66,-319.76,924.39,45867.5,-39497.5,282345.0
-246.2,-295.73,922.08,37362.5,-33127.5,277427.5
-144.33,-254.86,929.15,38272.5,7420.0,243757.5
-16.35,-198.37,932.2,25777.5,63350.0,180022.5
108.09,-133.35,926.71,-7595.0,69755.0,103110.0
215.94,-67.95,925.49,-22172.5,25707.5,25900.0
308.42,-9.88,934.76,-1137.5,-17517.5,-37835.0
388.2,39.04,945.13,20265.0,-27055.0,-83282.5
454.57,79.54,946.84,18392.5,-12110.0,-125212.5
504.1,109.68,940.25,2275.0,1907.5,-165025.0
535.82,127.86,929.64,-14717.5,6825.0,-201407.5
549.73,133.47,919.27,-28210.0,5425.0,-234290.0
545.58,125.9,910.36,-36190.0,8207.5,-257022.5
522.4,105.65,902.8,-51485.0,21525.0,-269902.5
478.97,74.42,898.29,-64365.0,35822.5,-271530.0
416.02,34.89,897.19,-71487.5,43802.5,-260452.5
337.57,-10.25,900.24,-68092.5,45885.0,-236337.5
248.39,-58.8,906.95,-52815.0,44082.5,-203542.5
149.33,-108.21,915.12,-34702.5,35752.5,-161945.0
43.19,-154.33,924.15,-11672.5,15347.5,-109305.0
-67.34,-196.79,932.32,17412.5,-10710.0,-41370.0
-172.26,-233.51,938.18,35122.5,-27737.5,40285.0
-258.52,-262.67,942.33,45115.0,-29767.5,116882.5
-322.08,-285.97,943.67,48142.5,-20597.5,184957.5
-365.39,-303.66,941.6,51292.5,-11445.0,239977.5
-392.35,-316.83,934.76,60935.0,-20370.0,286020.0
-402.23,-325.01,923.78,71312.5,-44292.5,323312.5
-391.38,-326.96,912.32,74882.5,-57907.5,351137.5
-358.19,-322.32,903.04,64715.0,-54845.0,366660.0
-301.1,-312.81,898.53,53445.0,-46165.0,366747.5
-206.42,-291.7,907.19,52622.5,-20125.0,340865.0
-65.39,-246.93,923.91,69247.5,40442.5,262342.5
88.82,-181.41,924.88,56892.5,89040.0,148067.5
211.06,-112.12,907.31,6352.5,63630.0,28875.0
295.97,-54.9,895.48,-22330.0,-9835.0,-56210.0
364.17,-10.74,900.85,-7980.0,-53620.0,-103022.5
425.54,25.25,911.46,15120.0,-40582.5,-134820.0
477.75,55.63,912.8,11865.0,-3167.5,-162750.0
518.01,80.28,902.56,-13265.0,29820.0,-197470.0
543.39,96.5,885.84,-43680.0,45080.0,-239627.5
551.68,101.14,868.76,-65187.5,41142.5,-279807.5
544.12,93.45,855.71,-74165.0,32200.0,-311220.0
523.5,74.05,848.14,-78872.5,39217.5,-337330.0
488.37,41.11,843.14,-81515.0,66832.5,-359275.0
432.98,-6.47,836.55,-91175.0,92750.0,-369582.5
355.02,-66.0,831.06,-90545.0,97737.5,-353657.5
257.54,-131.76,830.21,-68057.5,77297.5,-307930.0
142.37,-197.15,833.02,-39515.0,48020.0,-238980.0
12.32,-256.32,838.99,-13422.5,11147.5,-143552.5
-119.07,-305.24,847.05,10692.5,-23817.5,-33110.0
-234.61,-343.19,853.51,23170.0,-38150.0,74025.0
-323.06,-372.47,855.22,23835.0,-40302.5,168700.0
-381.37,-393.57,852.05,19722.5,-43172.5,236985.0
-415.78,-409.19,847.17,17850.0,-52150.0,282100.0
-431.51,-421.14,844.0,28945.0,-76090.0,318465.0
-427.98,-426.76,845.09,51170.0,-94342.5,346605.0
-405.04,-423.71,847.41,60637.5,-86677.5,363282.5
-362.95,-412.48,847.9,49437.5,-75600.0,364997.5
-298.41,-394.79,853.39,38220.0,-70157.5,347882.5
-203.37,-364.9,870.47,50470.0,-43085.0,309190.0
-80.28,-315.13,884.74,63332.5,3745.0,238297.5
50.51,-246.32,880.35,36487.5,35105.0,137865.0
163.48,-170.07,865.96,-17797.5,24727.5,14035.0
246.81,-105.41,859.73,-47250.0,-12845.0,-85697.5
310.98,-57.34,866.69,-39252.5,-31972.5,-139667.5
367.46,-19.76,874.98,-28875.0,-9782.5,-178727.5
412.97,8.3,875.11,-45237.5,20895.0,-218907.5
442.01,24.4,871.32,-67322.5,33267.5,-259577.5
454.57,26.84,869.25,-74270.0,31045.0,-293790.0
449.94,14.76,871.08,-72905.0,28717.5,-319620.0
426.27,-11.96,875.84,-67515.0,37957.5,-329752.5
383.45,-50.14,879.74,-59780.0,46130.0,-322945.0
322.32,-96.01,886.21,-53480.0,51992.5,-299512.5
243.02,-146.4,896.33,-33110.0,55072.5,-252612.5
151.16,-195.57,905.36,-14892.5,46182.5,-190120.0
51.0,-241.44,912.32,3622.5,26915.0,-123567.5
-55.88,-284.38,917.44,24535.0,-9100.0,-42787.5
-159.09,-323.18,922.93,49682.5,-43435.0,46830.0
-245.83,-357.09,925.37,64155.0,-53795.0,139352.5
-309.15,-383.81,923.05,64050.0,-49805.0,218995.0
-349.77,-401.26,918.17,64365.0,-50575.0,279002.5
-368.2,-409.19,913.29,67130.0,-59027.5,322577.5
-365.27,-410.16,909.27,74795.0,-66447.5,350367.5
-341.36,-405.04,903.17,84945.0,-82302.5,362915.0
-297.31,-393.94,897.43,91962.5,-90930.0,355880.0
-233.14,-376.61,895.48,100205.0,-83562.5,334897.5
-146.28,-348.92,893.41,105280.0,-55825.0,294052.5
-37.33,-305.24,888.4,95305.0,-20125.0,231595.0
85.4,-241.56,880.47,71610.0,25567.5,143780.0
197.15,-168.24,863.64,24395.0,53672.5,41160.0
280.11,-101.99,844.97,-27125.0,32410.0,-48982.5
343.31,-48.43,840.34,-39935.0,3832.5,-108850.0
397.6,-5.25,846.68,-33092.5,15907.5,-151935.0
441.88,28.67,849.73,-37782.5,52412.5,-188667.5
471.65,51.97,843.39,-56385.0,75862.5,-222757.5
483.97,63.32,832.89,-74165.0,74305.0,-251370.0
481.05,63.44,825.57,-79082.5,63017.5,-271040.0
466.53,53.68,822.52,-77385.0,61145.0,-287700.0
440.42,34.16,821.06,-79257.5,70192.5,-302610.0
401.5,3.66,820.69,-82057.5,81795.0,-311657.5
347.7,-38.8,823.26,-80657.5,92645.0,-306145.0
272.55,-91.5,831.43,-53760.0,94202.5,-272895.0
175.07,-146.64,840.09,-25077.5,71662.5,-208285.0
62.59,-196.3,846.44,-1505.0,33127.5,-124775.0
-52.83,-238.27,853.15,16905.0,-8295.0,-28980.0
-156.89,-272.55,859.86,27107.5,-30782.5,65415.0
-240.34,-299.75,865.35,30502.5,-43592.5,150535.0
-299.39,-318.3,871.32,36400.0,-54110.0,222512.5
-333.3,-327.94,880.84,54337.5,-58922.5,278845.0
-341.6,-327.81,890.36,75915.0,-54967.5,318080.0
-330.5,-319.15,894.75,93187.5,-54425.0,337067.5
-305.0,-306.1,889.99,103932.5,-76125.0,346500.0
-254.86,-284.5,880.72,104300.0,-107100.0,328965.0
-172.87,-247.29,877.67,107730.0,-95112.5,271460.0
-69.66,-193.49,875.11,99732.5,-35980.0,191730.0
37.33,-126.76,859.25,54565.0,27300.0,104650.0
130.3,-55.88,833.26,-15487.5,56122.5,6597.5
199.71,4.88,810.69,-70700.0,45465.0,-85855.0
249.73,48.43,799.34,-89390.0,21367.5,-151112.5
286.21,77.59,797.15,-89040.0,4637.5,-201705.0
311.83,93.7,800.56,-87115.0,-280.0,-238997.5
330.13,97.36,806.18,-89355.0,12267.5,-267347.5
339.65,88.21,809.84,-100537.5,34702.5,-290010.0
334.65,65.39,814.23,-110670.0,50382.5,-305340.0
311.83,31.23,826.43,-101552.5,55842.5,-308035.0
271.08,-10.86,846.31,-73727.5,57085.0,-298812.5
212.28,-59.05,868.03,-45185.0,64050.0,-274732.5
134.69,-111.51,885.96,-20475.0,65012.5,-229407.5
39.89,-164.09,899.63,3762.5,45885.0,-161682.5
-64.54,-213.13,910.73,31167.5,9747.5,-77490.0
-167.02,-256.57,918.9,56787.5,-18900.0,16065.0
-258.15,-294.26,920.49,74322.5,-39655.0,111020.0
-329.28,-325.01,915.73,85172.5,-57120.0,198695.0
-376.98,-349.16,907.92,93887.5,-57890.0,269990.0
-401.62,-366.12,896.21,96215.0,-51222.5,324082.5
-405.53,-374.3,877.42,78522.5,-46340.0,354550.0
-390.77,-373.56,854.12,53935.0,-60707.5,372365.0
-359.41,-366.0,834.72,33162.5,-77437.5,379172.5
-314.03,-356.36,826.92,22505.0,-76930.0,383967.5
-251.32,-345.38,833.14,27265.0,-69335.0,379417.5
-154.45,-324.03,855.34,50225.0,-39602.5,343315.0
-16.35,-280.36,879.13,73535.0,26880.0,255080.0
131.27,-215.57,881.94,63175.0,82512.5,148662.5
250.47,-141.28,865.96,13370.0,46392.5,18235.0
335.87,-75.64,857.42,-28770.0,-40110.0,-100345.0
400.4,-30.26,870.23,-22802.5,-77227.5,-164972.5
452.86,1.22,891.82,-1732.5,-47355.0,-191957.5
494.22,24.28,901.82,-5442.5,15330.0,-209160.0
522.4,39.77,896.46,-40967.5,59920.0,-235252.5
539.48,47.46,887.55,-62580.0,68932.5,-269552.5
546.56,44.9,879.86,-61267.5,56525.0,-309592.5
539.48,29.52,874.01,-53375.0,38675.0,-340742.5
517.77,2.68,872.06,-42595.0,29627.5,-361462.5
480.07,-35.14,874.5,-26757.5,37275.0,-374535.0
426.02,-84.18,877.42,-26040.0,56612.5,-368322.5
353.8,-140.54,879.62,-29575.0,72135.0,-342177.5
258.4,-199.59,884.38,-17412.5,56017.5,-290570.0
139.45,-255.83,893.04,14770.0,2887.5,-207235.0
10.0,-303.9,906.58,48527.5,-46707.5,-99120.0
-107.12,-341.6,921.22,66990.0,-46970.0,13177.5
-197.76,-369.78,927.2,63087.5,-15592.5,112665.0
-265.23,-389.18,924.27,48632.5,4077.5,191362.5
-316.47,-402.84,918.17,51992.5,-7017.5,255395.0
-350.38,-413.21,911.1,72607.5,-37537.5,308822.5
-363.93,-420.41,901.95,88865.0,-53725.0,352065.0
-356.24,-420.78,889.62,85382.5,-44940.0,381692.5
-331.72,-412.73,875.35,60095.0,-23152.5,391772.5
-297.92,-403.33,862.66,42157.5,-23065.0,404932.5
-252.3,-395.77,856.2,43522.5,-44782.5,420997.5
-181.41,-384.42,864.37,59675.0,-56682.5,412702.5
-66.73,-359.53,888.16,89477.5,-20650.0,358330.0
86.01,-308.9,909.63,108132.5,64015.0,260732.5
236.68,-235.7,903.29,101570.0,115640.0,154665.0
352.46,-154.09,868.03,45220.0,57767.5,32917.5
432.86,-79.91,834.85,-18637.5,-37135.0,-78592.5
493.61,-25.13,824.72,-36557.5,-79642.5,-145652.5
544.12,13.54,828.87,-27545.0,-60427.5,-176977.5
585.6,43.19,829.36,-27440.0,-7455.0,-196595.0
615.86,66.37,816.67,-54635.0,37082.5,-225365.0
633.91,81.5,797.15,-91717.5,52692.5,-263637.5
642.09,85.03,781.9,-114327.5,51660.0,-306302.5
637.33,74.18,773.6,-121625.0,45640.0,-343122.5
614.27,49.41,771.28,-122167.5,43242.5,-364122.5
574.13,14.4,775.92,-115780.0,45325.0,-371122.5
520.57,-28.79,788.24,-98752.5,47215.0,-371735.0
453.96,-80.64,802.52,-75897.5,48037.5,-360290.0
367.46,-141.03,814.96,-59307.5,46427.5,-323872.5
253.88,-205.94,831.31,-42577.5,26425.0,-249095.0
119.8,-267.06,856.07,-7437.5,-7700.0,-140560.0
-14.64,-319.88,883.4,40057.5,-33985.0,-14035.0
-124.2,-359.9,902.19,64890.0,-25655.0,100625.0
-199.84,-384.79,907.44,63612.5,-4935.0,180390.0
-249.49,-398.21,902.8,53077.5,2187.5,234132.5
-278.4,-402.72,891.82,49577.5,-6825.0,268625.0
-289.26,-401.5,875.72,43995.0,-20807.5,288312.5
-284.75,-394.18,856.93,40512.5,-36277.5,295802.5
-272.18,-380.88,836.8,33687.5,-45640.0,297395.0
-258.27,-364.05,816.18,14647.5,-48790.0,307072.5
-238.02,-345.5,800.44,-14210.0,-48790.0,325972.5
-196.79,-324.15,796.9,-34947.5,-40670.0,339255.0
-116.63,-295.48,807.4,-54600.0,2082.5,319935.0
4.15,-254.0,831.19,-84840.0,68022.5,249672.5
136.03,-201.54,866.2,-91332.5,87570.0,140245.0
244.49,-146.89,906.95,-62842.5,36050.0,29032.5
323.42,-98.94,952.94,-10850.0,-34247.5,-57680.0
385.15,-60.15,997.96,47915.0,-60340.0,-105892.5
441.64,-25.86,1027.24,75582.5,-35700.0,-135922.5
496.05,6.47,1034.32,62265.0,7647.5,-177415.0
540.46,32.7,1022.73,31220.0,30870.0,-231420.0
570.72,48.8,1003.82,7087.5,21210.0,-290990.0
588.53,51.48,986.98,-682.5,2222.5,-346360.0
594.38,38.8,972.22,-2397.5,-2957.5,-390075.0
580.48,7.56,956.11,-14052.5,11725.0,-414085.0
537.04,-41.97,939.4,-29785.0,33635.0,-406280.0
459.45,-104.07,929.4,-41825.0,48842.5,-366835.0
347.33,-171.9,925.98,-28017.5,39147.5,-287035.0
212.04,-237.41,925.0,-11357.5,14472.5,-178027.5
74.91,-295.0,927.93,6475.0,-16695.0,-64312.5
-44.41,-344.41,930.37,16485.0,-22400.0,42367.5
-138.96,-383.93,929.4,13737.5,-14962.5,132755.0
-212.04,-413.58,926.59,19670.0,-25812.5,204802.5
-267.18,-435.78,926.83,41755.0,-46515.0,271302.5
-303.17,-450.79,930.86,72642.5,-56070.0,337872.5
-315.37,-459.7,933.42,92732.5,-48195.0,393242.5
-306.71,-465.06,931.59,101500.0,-41282.5,437885.0
-280.97,-469.21,925.37,111457.5,-50225.0,475580.0
-235.58,-476.04,917.81,113400.0,-59150.0,497192.5
-166.16,-492.03,912.68,114782.5,-59605.0,505260.0
-66.61,-510.57,916.71,127137.5,-51012.5,499012.5
83.94,-490.07,939.16,166915.0,5390.0,432075.0
270.11,-410.41,948.55,198712.5,85207.5,272020.0
427.73,-305.98,904.26,133140.0,81655.0,83475.0
526.06,-211.67,836.55,-13580.0,16520.0,-79800.0
586.82,-141.89,796.42,-103320.0,-48632.5,-187915.0
641.96,-92.48,790.68,-106032.5,-70560.0,-256340.0
698.82,-58.07,793.85,-86520.0,-31727.5,-306950.0
748.84,-37.58,786.29,-93660.0,16677.5,-351137.5
784.95,-31.48,768.6,-126350.0,38657.5,-400942.5
802.27,-43.68,750.91,-153755.0,38762.5,-448017.5
796.9,-75.4,743.22,-155330.0,29365.0,-475632.5
766.28,-120.29,747.25,-137182.5,30905.0,-477942.5
708.33,-173.48,764.7,-110250.0,46917.5,-458377.5
621.47,-230.82,787.63,-61337.5,54285.0,-403830.0
509.96,-284.38,806.79,-29277.5,50645.0,-326130.0
378.69,-331.11,825.21,-2870.0,20125.0,-231875.0
238.88,-371.86,842.65,25270.0,-20702.5,-113505.0
110.78,-404.31,855.95,32025.0,-30800.0,9940.0
8.91,-427.73,863.39,15225.0,-9240.0,115447.5
-68.69,-443.96,867.66,-1155.0,4725.0,193672.5
-130.3,-456.77,873.03,2747.5,3080.0,259490.0
-178.85,-466.65,879.99,30467.5,-20177.5,323050.0
-208.86,-470.92,883.77,66027.5,-42472.5,376775.0
-215.33,-470.8,878.64,68565.0,-39952.5,416657.5
-199.71,-467.75,866.93,45517.5,-31185.0,443940.0
-163.6,-465.55,856.93,10622.5,-23852.5,456505.0
-107.6,-470.68,859.37,-4252.5,-28525.0,459620.0
-20.86,-473.85,885.72,28840.0,-31622.5,447597.5
109.8,-445.54,928.66,103075.0,10972.5,366992.5
259.86,-377.71,945.13,145215.0,52850.0,229442.5
388.08,-288.41,914.02,84175.0,27090.0,64872.5
480.19,-202.89,873.52,-33565.0,-36802.5,-96057.5
548.51,-139.69,862.78,-90510.0,-79362.5,-212800.0
606.22,-101.26,878.28,-77822.5,-73377.5,-285197.5
653.19,-81.5,899.02,-41510.0,-38272.5,-321825.0
688.69,-71.98,910.24,-21577.5,9607.5,-347952.5
709.06,-70.03,902.07,-39427.5,60725.0,-378542.5
