timestamp_ms,acc_x,acc_y,acc_z,gyro_x,gyro_y,gyro_z
2107,5.37,112.24,970.14,-682.5,3185.0,105.0
2136,4.76,107.85,973.19,612.5,1522.5,210.0
2166,3.42,104.31,975.02,892.5,192.5,-192.5
2196,1.83,101.14,976.0,-735.0,700.0,-210.0
2226,-0.12,97.84,977.59,-455.0,385.0,437.5
2256,-1.95,94.43,979.54,87.5,455.0,1295.0
2285,-2.93,91.38,981.25,-280.0,227.5,910.0
2315,-3.9,88.94,982.83,-157.5,-525.0,52.5
2344,-5.49,86.38,984.42,-560.0,-822.5,210.0
2374,-6.71,83.08,986.74,-1067.5,-560.0,507.5
2403,-7.44,79.91,989.42,70.0,-455.0,805.0
2433,-7.44,77.47,991.01,542.5,-367.5,1085.0
2462,-6.95,75.4,992.1,-140.0,-192.5,612.5
2492,-6.83,73.44,993.45,-105.0,-507.5,-227.5
2521,-7.44,71.49,994.91,437.5,-17.5,542.5
2551,-7.56,69.66,995.4,262.5,-297.5,717.5
2580,-7.2,68.08,996.5,-770.0,350.0,17.5
2610,-7.2,66.61,998.57,875.0,-402.5,-70.0
2640,-6.83,65.39,999.67,980.0,-332.5,-367.5
2670,-6.71,64.42,1000.4,577.5,175.0,-717.5
2700,-7.08,63.2,1000.89,175.0,700.0,-1155.0
2730,-7.81,62.22,1000.89,210.0,525.0,-875.0
2760,-8.91,61.0,1001.01,-157.5,-70.0,-945.0
2789,-10.25,60.02,1001.62,-122.5,17.5,-507.5
2819,-11.22,59.05,1002.35,-332.5,490.0,210.0
2848,-11.59,57.46,1003.33,-17.5,0.0,140.0
2878,-11.35,56.12,1004.43,297.5,175.0,-210.0
2907,-10.74,55.14,1005.4,157.5,595.0,-262.5
2937,-9.88,54.41,1006.38,735.0,787.5,-420.0
2966,-9.76,54.17,1006.26,1015.0,315.0,-1225.0
2996,-10.61,54.05,1005.4,245.0,210.0,-1662.5
3025,-12.32,53.68,1004.91,-367.5,455.0,-1050.0
3055,-13.66,52.95,1005.16,-682.5,350.0,-752.5
3084,-14.4,52.09,1006.01,245.0,-350.0,-805.0
3114,-15.37,51.61,1006.5,17.5,-245.0,-822.5
3143,-16.84,50.51,1007.48,-1015.0,682.5,-682.5
3173,-18.54,48.8,1008.82,980.0,-175.0,525.0
3202,-19.28,48.43,1008.7,1662.5,-17.5,1557.5
3231,-19.03,49.41,1007.6,385.0,52.5,420.0
3261,-20.01,49.65,1006.62,-507.5,577.5,612.5
3290,-21.35,49.29,1006.26,-927.5,350.0,1365.0
3320,-21.84,49.17,1006.5,-805.0,-297.5,1207.5
3349,-21.72,49.04,1007.11,-1067.5,-227.5,490.0
3378,-21.47,48.31,1008.7,-840.0,665.0,1067.5
3407,-20.5,47.34,1010.16,262.5,157.5,787.5
3437,-19.28,47.21,1010.65,385.0,315.0,-455.0
3466,-18.91,47.09,1010.28,297.5,0.0,-1102.5
3496,-19.03,46.85,1009.79,-227.5,490.0,-805.0
3525,-19.52,46.6,1009.79,-140.0,262.5,-962.5
3555,-20.62,46.36,1009.79,-227.5,87.5,-1312.5
3584,-22.2,45.75,1010.04,-647.5,542.5,-630.0
3614,-23.67,45.02,1010.65,227.5,-297.5,-280.0
3643,-24.64,44.29,1010.77,490.0,-245.0,52.5
3673,-25.38,43.68,1010.89,262.5,297.5,420.0
3703,-25.62,43.19,1011.26,105.0,245.0,245.0
3732,-25.86,42.58,1011.87,402.5,-122.5,-87.5
3762,-26.11,42.33,1012.11,665.0,245.0,455.0
3791,-25.86,42.58,1012.23,717.5,-245.0,-490.0
3821,-26.11,42.82,1011.75,735.0,17.5,-385.0
3850,-26.47,43.07,1011.01,367.5,-420.0,-577.5
3880,-26.6,43.19,1010.28,227.5,-1295.0,-1417.5
3909,-26.96,43.07,1010.53,-560.0,122.5,-1312.5
3939,-27.57,42.58,1011.38,297.5,-472.5,-1155.0
3968,-27.82,42.21,1011.75,332.5,-52.5,-472.5
3998,-28.18,42.21,1011.75,577.5,-350.0,-507.5
4027,-28.79,42.33,1011.38,0.0,315.0,52.5
4057,-29.28,42.33,1011.26,-140.0,-87.5,-210.0
4086,-29.65,42.21,1011.14,525.0,-630.0,70.0
4116,-29.89,42.21,1010.65,-280.0,17.5,157.5
4146,-30.01,42.09,1010.89,-490.0,0.0,70.0
4175,-30.26,41.85,1011.38,-105.0,-227.5,157.5
4204,-30.26,41.48,1011.87,612.5,-472.5,140.0
4233,-30.5,41.24,1011.87,700.0,-315.0,315.0
4263,-30.26,41.36,1011.14,245.0,-52.5,490.0
4292,-30.01,41.85,1010.65,105.0,-297.5,-52.5
4322,-29.89,42.21,1010.4,70.0,-192.5,157.5
4351,-29.77,42.46,1010.28,-647.5,-105.0,-140.0
4381,-30.01,42.09,1011.01,-175.0,-262.5,-122.5
4410,-30.26,41.72,1011.75,262.5,35.0,210.0
4440,-30.5,41.48,1012.23,700.0,-140.0,87.5
4469,-30.62,41.72,1011.87,787.5,-542.5,70.0
4499,-30.62,41.97,1011.26,-770.0,315.0,-227.5
4528,-30.87,41.72,1011.75,35.0,17.5,227.5
4558,-30.74,41.6,1012.11,875.0,-665.0,227.5
4587,-30.5,41.72,1011.87,717.5,-735.0,-35.0
4617,-30.01,41.97,1011.62,-262.5,35.0,-227.5
4647,-30.01,42.09,1012.11,-245.0,297.5,-367.5
4676,-30.26,41.97,1012.6,682.5,17.5,17.5
4706,-30.5,41.97,1012.36,787.5,-122.5,105.0
4735,-30.74,42.21,1011.87,262.5,-87.5,-227.5
4765,-31.23,42.33,1011.62,175.0,-455.0,-210.0
4794,-31.72,42.33,1011.62,-210.0,315.0,507.5
4824,-31.6,42.21,1012.11,122.5,105.0,420.0
4853,-31.35,42.46,1012.48,315.0,-52.5,-35.0
4883,-31.48,42.58,1012.23,805.0,-507.5,-52.5
4912,-31.35,42.82,1011.75,-105.0,367.5,262.5
4942,-31.11,43.19,1011.5,122.5,-507.5,-227.5
4971,-31.23,43.31,1011.5,-175.0,-192.5,-297.5
5001,-31.72,43.07,1011.87,157.5,0.0,70.0
5031,-31.96,42.94,1012.11,192.5,-227.5,52.5
5061,-32.09,43.19,1011.99,140.0,-402.5,-192.5
5090,-32.33,43.68,1011.26,0.0,-595.0,-245.0
5119,-32.21,43.8,1010.53,-577.5,-437.5,-157.5
5148,-31.96,43.68,1010.89,-717.5,-472.5,-192.5
5177,-31.84,43.31,1011.87,35.0,-280.0,52.5
5207,-31.6,43.19,1012.36,770.0,-367.5,-17.5
5236,-31.48,43.31,1011.99,297.5,-140.0,-175.0
5266,-31.6,43.31,1011.75,-140.0,-210.0,-490.0
5295,-32.09,42.94,1011.87,560.0,-385.0,420.0
5325,-32.21,42.94,1011.87,420.0,35.0,612.5
5354,-32.21,42.94,1011.87,140.0,0.0,315.0
5384,-32.21,42.82,1012.11,-35.0,70.0,402.5
5414,-31.72,42.94,1012.36,350.0,-507.5,-122.5
5444,-31.35,43.19,1012.36,245.0,-35.0,-70.0
5473,-30.99,43.43,1012.23,315.0,-35.0,-262.5
5503,-30.99,43.68,1011.5,140.0,-280.0,-455.0
5532,-31.23,43.8,1011.01,-315.0,-70.0,-192.5
5561,-31.48,43.8,1011.14,140.0,-350.0,-52.5
5591,-31.72,43.55,1011.5,402.5,-402.5,70.0
5620,-31.84,43.43,1011.62,0.0,-140.0,-35.0
5650,-31.72,43.55,1011.38,210.0,-455.0,-157.5
5679,-31.48,43.68,1011.14,-140.0,-227.5,-140.0
5708,-31.23,43.8,1011.14,35.0,-87.5,52.5
5737,-31.11,43.8,1011.38,35.0,-52.5,-192.5
5767,-30.99,43.8,1011.38,87.5,-35.0,-227.5
5796,-30.99,43.55,1011.38,140.0,-175.0,-192.5
5826,-31.35,43.43,1011.38,315.0,-210.0,-192.5
5855,-31.6,43.68,1011.01,175.0,-140.0,122.5
5885,-31.48,43.68,1010.89,-192.5,-140.0,-70.0
5914,-31.48,43.68,1011.14,35.0,-210.0,-105.0
5944,-31.48,43.43,1011.5,367.5,-87.5,52.5
5974,-31.35,43.31,1011.75,507.5,-70.0,-87.5
6004,-31.35,43.55,1011.38,682.5,-262.5,122.5
6033,-31.35,43.8,1010.65,-210.0,52.5,-70.0
6062,-31.48,43.92,1010.65,-35.0,-87.5,-70.0
6092,-31.6,43.92,1011.14,-105.0,227.5,-87.5
6121,-31.72,43.8,1011.26,700.0,-490.0,87.5
6151,-31.72,43.8,1010.89,0.0,-227.5,52.5
6180,-31.6,44.04,1011.01,-17.5,17.5,-52.5
6210,-31.72,44.04,1011.14,-17.5,-210.0,-297.5
6239,-31.84,44.04,1011.14,490.0,-595.0,-52.5
6269,-31.72,44.41,1010.53,-52.5,-665.0,-280.0
6298,-31.48,44.65,1009.92,-962.5,-490.0,-437.5
6328,-31.23,44.53,1010.4,-700.0,-35.0,122.5
6357,-30.99,44.16,1011.38,140.0,-647.5,-490.0
6387,-31.11,43.68,1012.23,332.5,-87.5,-122.5
6416,-31.11,43.68,1012.11,752.5,-332.5,-87.5
6446,-31.23,43.68,1011.38,192.5,-350.0,-227.5
6475,-31.23,44.04,1010.77,420.0,-735.0,-227.5
6505,-30.99,44.16,1010.28,-525.0,-490.0,-402.5
6534,-30.99,43.92,1010.65,-280.0,-840.0,-542.5
6563,-31.11,43.55,1011.14,-332.5,245.0,52.5
6593,-31.11,43.19,1011.87,245.0,105.0,350.0
6622,-30.5,43.19,1011.87,822.5,-840.0,-105.0
6652,-30.26,43.55,1011.14,-157.5,-105.0,-245.0
6681,-30.01,43.68,1010.65,-122.5,-490.0,-297.5
6711,-29.89,43.55,1010.77,-770.0,-227.5,-280.0
6740,-29.77,43.19,1011.38,140.0,-525.0,-52.5
6770,-29.52,42.94,1011.99,52.5,87.5,-52.5
6800,-29.52,42.58,1012.11,455.0,-332.5,-17.5
6830,-29.65,42.46,1011.99,-175.0,297.5,140.0
6859,-29.65,42.46,1011.87,420.0,-472.5,70.0
6889,-29.52,42.46,1011.75,-35.0,-87.5,122.5
6918,-29.28,42.58,1011.5,122.5,-367.5,105.0
6948,-28.79,42.7,1011.38,-472.5,35.0,0.0
6978,-28.67,42.58,1011.75,52.5,-157.5,-192.5
7007,-28.55,42.21,1012.36,-140.0,297.5,0.0
7037,-28.55,41.97,1012.72,682.5,-332.5,-210.0
7066,-28.79,41.97,1012.36,35.0,612.5,367.5
7096,-28.79,41.97,1011.99,227.5,-87.5,140.0
7125,-28.91,41.97,1011.62,-210.0,-157.5,35.0
7155,-28.91,41.97,1011.75,35.0,-280.0,-35.0
7184,-29.04,41.72,1012.11,210.0,-367.5,-140.0
7214,-29.04,41.6,1012.11,262.5,-87.5,280.0
7243,-28.79,41.6,1012.11,-87.5,70.0,-17.5
7273,-28.79,41.48,1012.23,157.5,-175.0,-105.0
7302,-29.04,41.48,1012.11,490.0,-385.0,-17.5
7332,-29.28,41.48,1011.87,-87.5,-52.5,52.5
7362,-29.4,41.48,1011.75,-122.5,-175.0,175.0
7392,-29.28,41.24,1012.11,-70.0,-157.5,122.5
7421,-29.16,41.24,1012.6,402.5,-87.5,350.0
7450,-28.79,41.24,1012.84,507.5,-262.5,-105.0
7479,-28.79,41.36,1012.6,297.5,52.5,122.5
7508,-28.55,41.48,1012.23,210.0,-245.0,-175.0
7537,-28.55,41.48,1012.23,140.0,-350.0,-402.5
7566,-28.67,41.6,1012.11,420.0,-507.5,-297.5
7596,-28.91,41.6,1011.87,87.5,192.5,35.0
7625,-29.28,41.72,1011.75,175.0,0.0,332.5
7655,-29.16,41.6,1011.99,-87.5,175.0,105.0
7684,-28.67,41.72,1012.11,647.5,105.0,210.0
7714,-27.94,42.58,1011.14,420.0,297.5,-35.0
7743,-27.08,43.92,1009.06,-385.0,-192.5,-577.5
7773,-26.11,44.77,1007.35,-2205.0,-332.5,-1505.0
7802,-25.86,44.04,1007.84,-2047.5,-752.5,-2432.5
7832,-27.21,42.7,1009.18,-822.5,-1312.5,-2082.5
7861,-29.16,41.72,1010.53,-577.5,-997.5,-1085.0
7891,-30.99,40.26,1011.62,122.5,-1067.5,-560.0
7920,-33.06,39.04,1011.75,35.0,-1050.0,367.5
7949,-34.65,38.31,1011.14,-315.0,-2082.5,945.0
7978,-34.16,36.84,1011.38,-1295.0,-1015.0,1732.5
8007,-31.96,35.62,1013.45,140.0,-1592.5,840.0
8036,-29.52,35.5,1016.02,1155.0,-980.0,472.5
8065,-26.96,35.87,1018.09,1872.5,332.5,210.0
8095,-25.25,36.23,1018.46,3640.0,420.0,-315.0
8124,-24.64,36.97,1015.41,2537.5,892.5,-122.5
8154,-24.64,38.06,1011.62,157.5,192.5,-245.0
8183,-24.4,39.28,1009.92,-787.5,35.0,-35.0
8213,-23.91,39.77,1010.4,-1172.5,-227.5,-1015.0
8242,-24.4,39.41,1012.11,122.5,-367.5,-910.0
8272,-25.13,38.67,1013.45,612.5,385.0,-210.0
8301,-25.99,38.06,1014.06,1330.0,-612.5,-105.0
8331,-26.47,37.82,1013.21,1505.0,-647.5,1015.0
8360,-25.74,38.31,1011.62,-157.5,-1277.5,87.5
8390,-24.16,39.04,1011.26,-315.0,-857.5,297.5
8419,-22.45,40.38,1011.87,-437.5,-227.5,-665.0
8448,-22.08,41.36,1012.84,17.5,35.0,-1330.0
8478,-22.94,40.99,1013.33,630.0,122.5,-840.0
8507,-24.16,40.5,1012.6,507.5,-385.0,-367.5
8537,-24.64,40.02,1012.23,-175.0,175.0,612.5
8566,-24.03,40.02,1012.84,332.5,-472.5,297.5
8596,-23.06,40.5,1013.33,700.0,-455.0,-70.0
8625,-22.2,40.87,1013.45,507.5,175.0,-140.0
8655,-21.35,40.99,1013.09,805.0,-542.5,-700.0
8684,-20.98,41.48,1012.36,105.0,17.5,-717.5
8714,-21.11,41.85,1012.11,175.0,-122.5,-665.0
8743,-21.47,41.97,1012.11,192.5,52.5,-455.0
8773,-22.2,42.09,1011.87,210.0,70.0,-35.0
8803,-22.94,42.33,1011.26,-175.0,87.5,-17.5
8833,-23.42,42.21,1011.38,-560.0,70.0,332.5
8863,-23.18,42.33,1012.11,350.0,-665.0,420.0
8893,-22.33,42.94,1012.48,525.0,-87.5,280.0
8923,-21.72,43.8,1012.11,595.0,227.5,-192.5
8952,-21.59,43.92,1011.14,-297.5,542.5,-577.5
8981,-22.08,43.43,1010.65,-770.0,-52.5,-560.0
9010,-22.94,42.58,1011.01,-315.0,-717.5,0.0
9040,-23.42,42.46,1011.87,280.0,-717.5,455.0
9069,-23.18,42.58,1012.23,525.0,-525.0,577.5
9099,-22.33,43.07,1011.87,315.0,-87.5,367.5
9128,-21.59,43.92,1011.38,0.0,122.5,-35.0
9158,-21.59,44.16,1011.01,-17.5,-350.0,-647.5
9187,-22.08,43.43,1010.89,-490.0,-17.5,-175.0
9217,-22.57,42.82,1011.99,122.5,-472.5,140.0
9246,-22.69,42.82,1012.84,787.5,-350.0,420.0
9276,-22.33,43.07,1012.6,682.5,-297.5,315.0
9305,-21.96,43.19,1011.75,175.0,-87.5,315.0
9335,-21.47,43.43,1010.89,-122.5,-525.0,-157.5
9364,-20.86,43.68,1011.26,-752.5,192.5,-192.5
9394,-20.5,43.68,1012.36,542.5,-525.0,-507.5
9423,-20.5,43.68,1012.84,665.0,-52.5,-350.0
9452,-20.74,43.68,1012.6,525.0,-52.5,-367.5
9482,-20.98,43.92,1012.11,385.0,-280.0,-280.0
9511,-21.11,44.41,1011.38,0.0,-402.5,-472.5
9541,-21.35,44.65,1011.01,-262.5,-542.5,-437.5
9570,-21.84,44.53,1011.38,-332.5,-507.5,-455.0
9599,-22.57,44.04,1011.87,227.5,-420.0,210.0
9628,-23.06,43.68,1012.11,385.0,-490.0,472.5
9658,-23.3,43.68,1011.62,192.5,-612.5,787.5
9687,-23.42,43.55,1011.38,-367.5,-490.0,822.5
9717,-23.06,43.43,1011.62,157.5,-560.0,1400.0
9746,-21.96,43.55,1011.75,227.5,-542.5,1172.5
9776,-20.25,44.41,1011.38,140.0,-315.0,630.0
9805,-18.42,44.9,1011.14,-927.5,210.0,-490.0
9835,-17.57,44.77,1011.87,-262.5,52.5,-910.0
9864,-17.45,44.41,1012.84,227.5,262.5,-752.5
9894,-17.69,44.16,1013.21,735.0,105.0,-665.0
9923,-18.3,44.04,1012.36,682.5,-367.5,-262.5
9952,-18.91,44.41,1011.14,-245.0,-280.0,-105.0
9981,-19.76,44.53,1010.4,-665.0,-402.5,-210.0
10010,-20.74,43.8,1010.89,-962.5,-210.0,367.5
10039,-21.23,42.94,1012.36,87.5,-770.0,752.5
10068,-20.86,42.7,1013.45,787.5,-525.0,910.0
10098,-19.89,43.07,1013.33,857.5,-507.5,420.0
10127,-18.79,43.68,1012.36,385.0,-665.0,157.5
10157,-17.81,44.29,1011.62,-367.5,-280.0,-245.0
10186,-17.57,44.16,1011.38,-52.5,-875.0,-682.5
10216,-17.93,43.68,1011.38,-770.0,17.5,35.0
10245,-18.06,42.7,1012.36,-367.5,-122.5,332.5
10275,-17.32,41.97,1013.7,560.0,-280.0,595.0
10304,-15.62,42.58,1014.31,1155.0,-262.5,140.0
10334,-14.03,43.68,1013.58,665.0,157.5,-1032.5
10363,-13.79,44.16,1012.6,-332.5,612.5,-1382.5
10393,-13.91,43.8,1012.11,-437.5,367.5,-875.0
10422,-13.54,43.19,1012.84,-367.5,0.0,-1435.0
10451,-13.79,43.07,1014.31,927.5,-227.5,-1487.5
10480,-15.01,43.19,1014.8,997.5,682.5,-910.0
10509,-16.71,43.07,1013.82,717.5,525.0,-577.5
10539,-18.67,42.82,1012.6,-17.5,262.5,140.0
10568,-20.13,42.58,1011.62,-70.0,-455.0,595.0
10598,-21.11,42.94,1010.65,-332.5,-980.0,857.5
10627,-21.72,43.07,1010.53,-1610.0,-280.0,1277.5
10656,-21.59,42.7,1012.11,-507.5,-612.5,1172.5
10685,-20.98,42.33,1013.21,665.0,-595.0,1155.0
10715,-20.5,42.46,1013.09,420.0,-805.0,630.0
10744,-20.25,42.46,1012.84,-192.5,-227.5,840.0
10774,-19.76,41.97,1012.84,630.0,-1067.5,770.0
10803,-18.79,41.85,1012.48,-87.5,-787.5,612.5
10833,-17.81,41.72,1012.84,280.0,-735.0,665.0
10862,-16.47,41.85,1012.84,542.5,-717.5,402.5
10892,-15.13,42.33,1012.6,-17.5,-87.5,227.5
10921,-14.15,42.94,1012.48,105.0,-420.0,-647.5
10950,-14.15,43.19,1012.6,-105.0,87.5,-647.5
10979,-14.27,43.19,1012.48,87.5,-35.0,-560.0
11008,-15.13,42.82,1012.11,0.0,-402.5,-490.0
11038,-15.74,42.46,1011.62,-70.0,-332.5,577.5
11067,-15.49,42.46,1011.26,-525.0,-612.5,280.0
11096,-15.62,42.7,1011.5,-385.0,-962.5,-35.0
11125,-15.25,42.46,1012.11,-297.5,-350.0,507.5
11155,-14.64,41.85,1013.58,0.0,-157.5,-70.0
11184,-14.88,41.36,1014.43,1120.0,-542.5,245.0
11214,-14.88,41.11,1013.82,665.0,-17.5,717.5
11243,-14.4,41.24,1012.6,385.0,-630.0,227.5
11273,-13.91,41.85,1011.5,-192.5,-787.5,192.5
11302,-13.18,42.33,1010.89,-787.5,-297.5,280.0
11332,-12.69,42.46,1011.14,-647.5,-700.0,-262.5
11361,-12.2,42.21,1011.62,-437.5,-385.0,105.0
11391,-11.71,41.72,1012.23,-297.5,-332.5,-157.5
11420,-11.22,41.11,1013.09,87.5,-175.0,-87.5
11449,-10.98,40.75,1013.7,577.5,-262.5,-122.5
11478,-10.98,40.63,1013.58,682.5,-490.0,-227.5
11507,-10.98,40.5,1013.09,-17.5,-35.0,122.5
11537,-10.98,40.26,1013.09,-192.5,-157.5,-70.0
11566,-10.98,39.77,1013.82,175.0,280.0,472.5
11596,-10.25,39.89,1013.94,630.0,70.0,280.0
11625,-9.64,40.14,1013.58,157.5,210.0,-262.5
11655,-9.03,40.02,1012.84,35.0,52.5,-280.0
11684,-8.54,40.02,1012.6,-420.0,122.5,-595.0
11714,-8.3,40.14,1012.84,175.0,-297.5,-665.0
11743,-8.17,40.26,1012.97,157.5,-35.0,-665.0
11773,-8.66,40.02,1012.48,472.5,-420.0,-560.0
11802,-9.03,39.77,1011.75,-577.5,385.0,227.5
11832,-9.03,39.77,1012.11,-315.0,-140.0,-367.5
11861,-9.03,39.77,1012.48,175.0,-227.5,-350.0
11891,-9.27,39.65,1012.97,122.5,-105.0,-490.0
11920,-10.0,39.41,1013.21,770.0,-420.0,-542.5
11949,-10.98,39.04,1013.33,192.5,157.5,210.0
11979,-11.1,38.55,1013.09,980.0,-1225.0,-35.0
12008,-10.86,38.67,1012.6,437.5,-910.0,175.0
12038,-10.37,39.04,1012.48,175.0,-1050.0,-87.5
12067,-9.88,39.28,1012.84,437.5,-1067.5,105.0
12097,-9.39,39.65,1012.72,455.0,-437.5,-175.0
12126,-9.27,39.77,1012.23,245.0,-525.0,-350.0
12156,-9.52,39.53,1012.36,-245.0,-70.0,227.5
12185,-9.27,39.28,1012.84,192.5,-350.0,157.5
12215,-8.78,39.16,1013.33,332.5,-122.5,385.0
12244,-8.05,39.04,1012.97,665.0,-385.0,402.5
12274,-6.71,39.77,1012.23,105.0,-437.5,52.5
12303,-5.25,40.99,1012.11,-507.5,385.0,-542.5
12333,-4.64,41.72,1012.6,-175.0,280.0,-1627.5
12362,-5.61,41.48,1013.09,-70.0,665.0,-1347.5
12392,-7.32,40.75,1013.33,315.0,35.0,-805.0
12422,-8.78,40.02,1013.21,332.5,-175.0,-122.5
12451,-9.52,39.65,1013.33,315.0,-297.5,577.5
12481,-9.52,39.53,1013.21,630.0,-630.0,857.5
12510,-8.66,40.02,1012.36,210.0,-682.5,437.5
12540,-7.56,40.63,1011.87,-420.0,-525.0,-35.0
12569,-6.83,40.75,1012.36,-315.0,-262.5,-245.0
12599,-6.71,40.63,1013.09,525.0,-752.5,-385.0
12628,-6.95,40.38,1013.58,472.5,-245.0,-175.0
12658,-7.32,40.38,1013.33,472.5,-280.0,140.0
12687,-7.32,40.75,1012.6,-70.0,-280.0,105.0
12717,-7.08,40.99,1012.36,-280.0,-612.5,-70.0
12746,-6.95,40.99,1012.36,87.5,-647.5,175.0
12776,-6.71,40.99,1012.11,-262.5,-542.5,87.5
12805,-6.59,40.75,1012.36,-297.5,-472.5,245.0
12835,-6.34,40.75,1012.72,245.0,-962.5,122.5
12864,-5.86,40.75,1012.97,140.0,-700.0,87.5
12894,-5.12,40.75,1013.21,262.5,-525.0,157.5
12924,-4.64,40.75,1013.33,-70.0,-420.0,-315.0
12953,-4.27,40.5,1013.33,525.0,-735.0,-122.5
12982,-3.9,40.38,1013.45,-122.5,-140.0,-17.5
13011,-3.66,40.38,1013.82,612.5,-857.5,-192.5
13041,-3.29,40.75,1013.94,595.0,70.0,420.0
13070,-2.68,41.24,1013.33,455.0,-350.0,-140.0
13100,-2.68,41.24,1012.84,-472.5,140.0,-192.5
13129,-2.93,40.75,1012.97,-210.0,-210.0,35.0
13159,-2.68,40.5,1013.7,70.0,-175.0,297.5
13188,-2.2,40.75,1014.06,770.0,-437.5,105.0
13218,-1.46,41.24,1013.58,315.0,17.5,122.5
13247,-0.49,41.72,1012.97,-157.5,-52.5,-402.5
13277,-0.24,41.72,1012.97,-157.5,-367.5,-822.5
13306,-0.37,41.24,1013.58,87.5,-52.5,-350.0
13336,-0.61,41.11,1013.82,350.0,-87.5,-385.0
13365,-0.98,40.99,1013.82,157.5,122.5,-175.0
13395,-1.46,41.11,1013.33,157.5,-175.0,-17.5
13424,-1.83,41.24,1013.09,-192.5,-140.0,175.0
13453,-1.83,41.36,1012.97,192.5,-297.5,472.5
13483,-1.34,41.48,1012.84,-140.0,-175.0,175.0
13512,-0.98,41.48,1013.09,-122.5,-17.5,157.5
13542,-0.73,41.24,1013.45,262.5,-350.0,-122.5
13571,-0.49,41.11,1013.7,140.0,-52.5,52.5
13601,0.0,41.11,1013.82,560.0,-245.0,-35.0
13630,0.37,41.6,1013.45,612.5,-192.5,-280.0
13660,0.61,41.97,1012.36,-105.0,-227.5,-577.5
13689,0.12,41.72,1011.87,-910.0,210.0,-297.5
13719,-0.49,41.24,1012.6,-297.5,-192.5,0.0
13748,-1.22,40.75,1013.58,367.5,-245.0,367.5
13778,-1.71,40.63,1013.45,630.0,-542.5,490.0
13807,-1.46,40.75,1012.97,-122.5,-70.0,752.5
13837,-0.61,40.87,1012.97,122.5,-157.5,595.0
13866,0.49,41.24,1012.97,192.5,-245.0,-17.5
13896,1.59,40.99,1013.33,-437.5,490.0,-402.5
13925,2.07,40.87,1013.58,752.5,-472.5,-787.5
13954,2.07,41.24,1013.21,175.0,87.5,-560.0
13984,1.71,41.48,1012.84,612.5,-437.5,-840.0
14013,1.1,41.97,1011.99,35.0,-52.5,-770.0
14043,0.24,41.97,1011.62,-875.0,210.0,-472.5
14072,-0.85,41.48,1012.11,192.5,-1137.5,-542.5
14101,-1.95,40.75,1012.36,-52.5,-70.0,612.5
14130,-2.32,40.26,1012.6,245.0,-455.0,577.5
14160,-2.2,40.02,1012.36,70.0,-280.0,962.5
14189,-1.59,40.02,1012.23,17.5,-542.5,822.5
14219,-0.73,40.26,1012.23,122.5,-595.0,455.0
14248,0.12,40.63,1012.6,-70.0,192.5,367.5
14278,0.73,40.75,1012.48,472.5,-525.0,-17.5
14307,1.22,40.75,1012.11,-140.0,-157.5,227.5
14337,1.95,40.75,1012.23,157.5,-595.0,-262.5
14366,2.68,41.11,1012.84,-35.0,245.0,-420.0
14396,2.93,41.48,1013.45,455.0,210.0,-1102.5
14425,2.07,41.36,1013.7,350.0,612.5,-1067.5
14455,0.49,40.75,1013.58,717.5,105.0,-262.5
14485,-0.98,40.14,1013.09,507.5,-332.5,245.0
14514,-1.83,39.89,1012.36,385.0,-805.0,892.5
14544,-1.22,39.89,1011.87,87.5,-682.5,1382.5
14573,0.37,40.63,1011.62,105.0,-910.0,542.5
14603,1.83,41.72,1011.14,-367.5,-262.5,-140.0
14632,2.44,42.09,1010.89,-752.5,-122.5,-840.0
14662,1.71,41.6,1011.38,-787.5,52.5,-472.5
14691,0.85,40.99,1012.6,-35.0,-437.5,-35.0
14721,0.24,40.38,1013.21,297.5,-210.0,455.0
14750,-0.12,40.14,1012.84,437.5,-525.0,595.0
14780,0.0,40.02,1012.11,-350.0,-105.0,980.0
14809,0.73,40.14,1011.87,-455.0,-577.5,612.5
14839,1.71,40.26,1012.48,-455.0,-385.0,140.0
14868,2.56,40.14,1013.7,105.0,-245.0,-87.5
14898,3.29,40.02,1014.19,455.0,-70.0,-420.0
14928,3.29,39.77,1014.06,332.5,-87.5,-507.5
14958,2.93,39.53,1013.58,227.5,122.5,105.0
14988,2.44,39.41,1013.33,105.0,-157.5,52.5
15017,1.95,39.41,1012.84,262.5,-577.5,227.5
15047,1.95,39.53,1012.23,-245.0,-227.5,682.5
15076,2.44,39.53,1012.36,-665.0,-35.0,262.5
15106,2.68,39.28,1013.33,-105.0,-17.5,210.0
15135,3.05,38.92,1014.06,315.0,122.5,105.0
15165,3.17,38.67,1014.55,542.5,52.5,-122.5
15194,3.05,38.67,1014.06,647.5,-140.0,122.5
15224,3.17,38.67,1013.09,52.5,-87.5,105.0
15253,3.54,38.67,1013.09,-367.5,17.5,-87.5
15283,3.9,38.55,1013.94,87.5,157.5,-420.0
15312,3.78,38.19,1014.92,892.5,402.5,-210.0
15342,3.42,38.06,1014.67,1417.5,-140.0,-35.0
15371,2.93,38.31,1013.21,595.0,-280.0,-105.0
15401,2.68,38.67,1011.99,-157.5,-52.5,227.5
15430,2.68,39.16,1011.38,-140.0,-280.0,157.5
15460,2.93,39.41,1011.5,-560.0,17.5,0.0
15490,2.93,39.16,1012.36,-105.0,-297.5,-385.0
15520,2.93,38.8,1013.09,700.0,-367.5,-105.0
15549,2.81,38.67,1013.09,630.0,70.0,-35.0
15578,2.68,38.92,1012.36,700.0,-560.0,-332.5
15608,2.56,39.41,1011.26,-700.0,210.0,-105.0
15637,2.44,39.53,1011.26,-455.0,-210.0,-210.0
15667,2.2,39.65,1011.62,-52.5,-157.5,0.0
15696,2.2,39.53,1011.62,-105.0,-350.0,-227.5
15726,1.71,39.16,1012.11,-192.5,-122.5,-17.5
15755,1.71,38.8,1012.48,280.0,-280.0,175.0
15785,1.59,38.8,1012.72,140.0,-140.0,17.5
15814,1.59,38.67,1012.6,385.0,-262.5,227.5
15844,1.95,38.8,1012.11,35.0,-157.5,52.5
15874,2.2,39.04,1011.75,227.5,-472.5,-17.5
15904,2.68,39.28,1011.38,-455.0,175.0,-210.0
15933,2.93,39.28,1011.62,-140.0,0.0,-385.0
15963,2.93,39.04,1011.87,0.0,-227.5,-542.5
15993,2.68,38.8,1011.87,-70.0,-35.0,-437.5
16023,2.2,38.55,1011.99,157.5,-140.0,-175.0
16052,1.83,38.55,1011.99,227.5,-122.5,-17.5
16081,1.71,38.8,1011.75,105.0,-245.0,-122.5
16111,1.59,38.55,1011.75,-367.5,-87.5,-122.5
16140,1.46,38.31,1012.36,105.0,-192.5,52.5
16170,1.46,38.06,1012.36,507.5,-245.0,35.0
16199,1.71,38.31,1011.99,35.0,0.0,-35.0
16229,1.95,38.55,1011.5,0.0,-490.0,-350.0
16258,1.95,38.43,1011.62,-700.0,280.0,-175.0
16288,1.59,38.19,1012.23,455.0,-332.5,-17.5
16317,1.34,38.31,1011.75,455.0,-560.0,-35.0
16347,1.46,38.19,1011.38,-560.0,192.5,122.5
16376,1.22,38.06,1011.87,577.5,-595.0,-70.0
16406,0.98,38.19,1011.75,420.0,-35.0,682.5
16436,1.34,38.31,1011.5,-87.5,280.0,385.0
16466,1.34,38.19,1011.62,-157.5,-525.0,-402.5
16495,0.85,37.82,1011.75,-105.0,-210.0,262.5
16525,1.1,38.06,1011.26,612.5,-822.5,385.0
16555,1.59,38.31,1010.65,-927.5,210.0,210.0
16585,1.71,38.06,1011.38,-87.5,-857.5,-227.5
16615,1.71,37.7,1011.99,-175.0,-105.0,52.5
16644,1.83,37.45,1012.23,175.0,-140.0,52.5
16674,1.95,37.58,1011.75,122.5,280.0,280.0
16703,1.95,37.82,1011.26,-665.0,962.5,367.5
16733,2.07,37.82,1011.01,105.0,-367.5,0.0
16762,1.95,37.94,1010.4,-1312.5,787.5,87.5
16792,1.34,37.33,1011.14,-2467.5,3447.5,682.5
16821,0.49,36.36,1012.36,-1645.0,4357.5,1417.5
16851,0.0,35.99,1012.23,-420.0,1697.5,525.0
16880,-0.37,35.87,1011.26,-525.0,140.0,-297.5
16910,-0.98,35.87,1010.16,-1365.0,857.5,-35.0
16939,-1.71,35.38,1009.43,-1732.5,0.0,-262.5
16969,-2.44,34.53,1009.43,-1540.0,332.5,35.0
16998,-3.42,33.92,1009.79,-1155.0,1277.5,822.5
17028,-5.0,31.6,1014.06,822.5,4217.5,700.0
17057,-6.22,29.52,1016.87,3867.5,1785.0,2362.5
17087,-7.32,29.04,1015.28,665.0,3447.5,1015.0
17116,-9.15,28.55,1014.8,1767.5,1540.0,1067.5
17145,-10.25,28.3,1014.43,665.0,840.0,717.5
17175,-11.35,28.43,1014.19,280.0,560.0,35.0
17204,-12.93,28.3,1013.94,-105.0,332.5,-227.5
17233,-14.76,27.94,1013.82,297.5,0.0,192.5
17262,-16.23,27.82,1013.58,630.0,-717.5,-87.5
17292,-17.32,27.82,1013.33,-52.5,-175.0,0.0
17321,-18.3,27.82,1013.33,-420.0,52.5,-122.5
17351,-19.03,27.82,1013.45,-332.5,350.0,192.5
17380,-19.76,27.82,1013.45,0.0,-140.0,-105.0
17410,-20.86,27.57,1013.33,35.0,-87.5,-70.0
17439,-22.08,27.21,1013.09,-1032.5,1172.5,647.5
17469,-23.18,27.08,1013.09,-945.0,1155.0,980.0
17498,-24.03,27.21,1013.21,297.5,-402.5,-262.5
17528,-24.89,26.84,1013.21,420.0,-455.0,-87.5
17557,-25.5,26.72,1013.21,52.5,-210.0,0.0
17587,-26.11,26.6,1013.21,385.0,-350.0,-175.0
17616,-26.72,26.35,1013.09,280.0,-70.0,-35.0
17646,-27.33,26.23,1013.09,245.0,-227.5,-140.0
17675,-28.06,26.11,1013.09,227.5,-17.5,-35.0
17704,-28.67,26.11,1013.09,192.5,-210.0,35.0
17734,-29.28,25.99,1012.97,-140.0,-210.0,-87.5
17763,-30.01,25.86,1012.97,245.0,-420.0,-105.0
17792,-30.38,25.74,1012.84,367.5,-280.0,70.0
17821,-30.74,25.62,1012.84,-122.5,105.0,70.0
17851,-31.23,25.62,1012.6,-87.5,-122.5,-105.0
17880,-31.72,25.62,1012.6,-402.5,52.5,0.0
17910,-32.21,25.62,1012.72,175.0,-507.5,-175.0
17939,-32.7,25.5,1012.6,192.5,-192.5,-157.5
17969,-33.18,25.5,1012.36,-542.5,-175.0,-402.5
17998,-33.43,25.13,1012.48,-455.0,-192.5,-87.5
18028,-33.67,24.89,1012.72,-87.5,-87.5,245.0
18057,-33.92,24.64,1012.72,227.5,-420.0,17.5
18087,-34.04,24.52,1012.6,140.0,-332.5,-35.0
18116,-34.16,24.4,1012.6,-122.5,-455.0,-52.5
18146,-34.28,24.28,1012.6,-262.5,17.5,157.5
18175,-34.28,24.16,1012.6,-122.5,-17.5,35.0
18205,-34.53,24.03,1012.6,-140.0,70.0,35.0
18235,-34.89,23.79,1012.6,87.5,-350.0,35.0
18264,-35.14,23.55,1012.6,-280.0,262.5,192.5
18293,-35.38,23.42,1012.6,-140.0,-175.0,87.5
18322,-35.5,23.18,1012.6,595.0,-997.5,-157.5
18351,-35.5,22.94,1012.48,-87.5,-245.0,0.0
18380,-35.38,22.81,1012.36,297.5,-980.0,-665.0
18409,-35.26,22.69,1012.36,-402.5,157.5,-140.0
18438,-35.26,22.57,1012.48,175.0,-192.5,-157.5
18468,-35.14,22.45,1012.6,455.0,-507.5,-157.5
18497,-35.14,22.2,1012.36,35.0,105.0,0.0
18527,-35.14,22.08,1012.23,-490.0,297.5,-192.5
18556,-35.62,21.96,1012.23,-105.0,17.5,-35.0
18586,-35.62,21.72,1012.23,455.0,-577.5,-140.0
18615,-35.62,21.47,1012.11,542.5,-717.5,-367.5
18645,-35.62,21.47,1011.75,-175.0,-35.0,-140.0
18674,-35.87,21.23,1011.87,-525.0,315.0,105.0
18704,-35.87,20.98,1011.87,210.0,-192.5,35.0
18733,-35.99,20.86,1011.75,350.0,-192.5,-17.5
18762,-36.11,20.74,1011.87,105.0,-87.5,0.0
18792,-36.11,20.74,1011.75,105.0,-70.0,0.0
18821,-35.99,20.62,1011.87,385.0,-612.5,-280.0
18850,-36.11,20.62,1011.87,402.5,-332.5,-70.0
18879,-36.23,20.5,1011.75,-140.0,262.5,175.0
18909,-36.11,20.37,1011.75,-70.0,122.5,35.0
18938,-36.11,20.37,1011.87,402.5,-105.0,-122.5
18967,-36.23,20.25,1011.87,17.5,52.5,-17.5
18996,-36.6,20.25,1011.87,227.5,-87.5,35.0
19026,-36.72,20.25,1011.87,157.5,87.5,105.0
19055,-36.72,20.25,1011.87,332.5,-105.0,122.5
19085,-36.6,20.25,1011.87,367.5,-175.0,-122.5
19114,-36.6,20.25,1011.87,35.0,-52.5,-402.5
19144,-36.72,20.25,1011.87,105.0,0.0,-385.0
19173,-37.09,20.25,1012.11,122.5,157.5,-157.5
19203,-37.33,20.25,1012.11,280.0,70.0,105.0
19232,-37.45,20.37,1012.11,-17.5,-17.5,-157.5
19262,-37.58,20.37,1012.11,105.0,-297.5,-210.0
19291,-37.58,20.37,1012.11,297.5,-385.0,-175.0
19321,-37.7,20.25,1012.11,420.0,-315.0,-105.0
19350,-37.82,20.25,1012.11,192.5,-315.0,17.5
19379,-37.82,20.37,1012.11,455.0,-700.0,-157.5
19408,-37.82,20.5,1012.11,210.0,-140.0,17.5
19437,-37.82,20.5,1012.11,210.0,-157.5,-105.0
19466,-37.94,20.5,1012.11,-262.5,175.0,122.5
19495,-37.94,20.5,1012.11,140.0,-367.5,192.5
19525,-37.82,20.74,1012.23,105.0,-245.0,52.5
19554,-37.82,20.74,1012.23,-175.0,35.0,-87.5
19584,-37.94,20.74,1012.11,-70.0,-52.5,-87.5
19613,-38.19,20.74,1012.11,17.5,-35.0,-70.0
19643,-38.19,20.62,1012.23,70.0,-262.5,35.0
19672,-37.94,20.62,1012.11,-192.5,70.0,105.0
19702,-37.94,20.5,1012.11,-105.0,70.0,17.5
19731,-37.94,20.5,1012.23,-507.5,437.5,332.5
19761,-38.06,20.5,1012.23,-175.0,-35.0,-157.5
19790,-38.55,20.37,1012.11,-70.0,-87.5,-227.5
19820,-38.92,20.13,1012.23,175.0,-560.0,-70.0
19849,-38.55,20.01,1012.23,210.0,-297.5,192.5
19879,-38.06,19.89,1012.11,-157.5,140.0,-70.0
19908,-37.7,19.64,1012.11,-175.0,-192.5,-280.0
19937,-37.82,19.52,1012.23,175.0,-542.5,-367.5
19966,-38.43,19.52,1012.23,262.5,-525.0,-52.5
19995,-39.04,19.52,1012.11,-227.5,-122.5,52.5
20024,-39.28,19.64,1012.23,105.0,-542.5,-122.5
20053,-39.16,19.76,1012.48,350.0,-402.5,70.0
20083,-38.8,19.64,1012.36,315.0,-297.5,-315.0
20112,-39.16,19.28,1012.11,-17.5,-367.5,-332.5
20142,-39.53,18.79,1011.87,490.0,-962.5,70.0
20171,-39.16,18.67,1011.87,192.5,-17.5,210.0
20201,-38.55,18.79,1011.99,52.5,437.5,262.5
20230,-38.06,19.03,1012.11,245.0,52.5,87.5
20260,-38.06,19.28,1012.36,-245.0,70.0,-227.5
20289,-38.67,19.28,1012.23,87.5,-140.0,-367.5
20319,-39.41,19.03,1012.11,70.0,-210.0,-35.0
20348,-39.65,18.54,1011.99,507.5,-647.5,157.5
20378,-39.53,18.42,1011.87,385.0,-385.0,472.5
20407,-39.28,18.54,1011.99,262.5,-595.0,105.0
20437,-39.04,18.54,1011.99,420.0,-455.0,140.0
20466,-39.04,18.79,1012.11,402.5,-542.5,245.0
20495,-38.8,19.15,1012.23,472.5,-892.5,-87.5
20524,-38.43,19.4,1012.23,122.5,-402.5,-52.5
20553,-38.06,19.15,1012.23,52.5,-105.0,70.0
20583,-37.82,18.79,1011.99,420.0,-280.0,157.5
20612,-37.45,18.79,1012.11,-17.5,-157.5,245.0
20642,-37.09,19.28,1012.36,87.5,-157.5,157.5
20671,-36.72,19.64,1012.36,420.0,-227.5,-70.0
20701,-36.48,19.76,1012.36,52.5,-17.5,-157.5
20730,-36.72,19.89,1012.48,350.0,87.5,17.5
20760,-37.09,19.76,1012.36,385.0,-140.0,35.0
20789,-37.33,19.52,1012.36,-105.0,-227.5,367.5
20819,-37.09,19.64,1012.36,227.5,-507.5,122.5
20848,-36.6,19.76,1012.36,122.5,-192.5,175.0
20878,-36.11,20.01,1012.36,-210.0,52.5,420.0
20907,-35.38,20.37,1012.6,455.0,-297.5,-367.5
20937,-35.14,20.5,1012.6,70.0,140.0,-297.5
20966,-35.87,20.37,1012.48,-350.0,157.5,-87.5
20996,-36.6,20.25,1012.48,140.0,-227.5,-122.5
21025,-37.21,20.25,1012.6,665.0,-840.0,87.5
21054,-36.72,20.5,1012.6,717.5,-927.5,157.5
21083,-35.99,20.74,1012.6,-192.5,-175.0,-262.5
21112,-35.87,20.74,1012.72,-245.0,105.0,-157.5
21141,-36.11,20.74,1012.72,280.0,-332.5,35.0
21170,-36.11,20.62,1012.72,245.0,-315.0,87.5
21200,-35.99,20.62,1012.6,-315.0,-35.0,-35.0
21229,-35.75,20.62,1012.72,-227.5,-280.0,-17.5
21258,-35.62,20.5,1012.84,-52.5,-350.0,-52.5
21287,-35.5,20.5,1012.84,-175.0,-87.5,157.5
21317,-35.26,20.5,1012.84,-962.5,420.0,245.0
21346,-35.14,20.5,1012.97,-280.0,-490.0,-630.0
21375,-35.26,20.5,1012.97,-140.0,-122.5,-87.5
21404,-35.26,20.25,1012.97,52.5,-455.0,-262.5
21434,-35.14,20.01,1012.84,-245.0,157.5,-87.5
21463,-34.77,19.89,1012.97,-385.0,192.5,-297.5
21493,-34.77,19.76,1012.97,-402.5,210.0,-490.0
21522,-35.01,19.4,1013.09,-227.5,-87.5,-192.5
21552,-35.14,19.28,1013.09,-122.5,-105.0,-35.0
21581,-35.01,19.03,1013.09,17.5,-35.0,-192.5
21611,-35.01,18.67,1013.09,-332.5,315.0,-122.5
21640,-35.38,18.42,1013.21,122.5,-70.0,-17.5
21669,-35.87,18.06,1013.09,315.0,-192.5,52.5
21699,-36.11,17.81,1012.97,122.5,-245.0,-157.5
21728,-36.36,17.45,1013.09,175.0,-350.0,157.5
21758,-36.11,17.45,1013.09,297.5,-280.0,262.5
21787,-35.99,17.45,1013.21,402.5,-455.0,-122.5
21816,-36.11,17.32,1013.09,367.5,-297.5,-35.0
21845,-35.99,17.08,1013.09,17.5,52.5,122.5
21875,-35.87,17.08,1013.09,87.5,-105.0,-70.0
21904,-35.87,17.08,1013.21,402.5,-122.5,52.5
21934,-36.11,16.96,1013.09,700.0,-595.0,-140.0
21963,-36.23,16.84,1013.09,-87.5,-70.0,-35.0
21993,-36.23,16.84,1012.97,-122.5,-105.0,52.5
22022,-36.11,16.84,1013.21,70.0,0.0,105.0
22052,-36.11,16.84,1013.21,332.5,-35.0,140.0
22081,-36.11,16.84,1013.21,227.5,70.0,35.0
22111,-36.11,16.84,1013.21,-175.0,-175.0,-210.0
22140,-36.36,16.84,1013.21,52.5,-87.5,-35.0
22170,-36.48,16.71,1013.09,140.0,-70.0,87.5
22200,-36.48,16.59,1013.09,315.0,-280.0,-122.5
22229,-36.48,16.47,1013.09,-70.0,52.5,87.5
22259,-36.6,16.59,1013.09,105.0,-297.5,-227.5
22288,-36.84,16.59,1012.97,175.0,-35.0,-87.5
22318,-37.09,16.35,1012.97,122.5,-315.0,0.0
22347,-37.09,16.35,1012.97,245.0,-227.5,175.0
22377,-36.72,16.59,1012.84,385.0,-227.5,105.0
22406,-36.6,16.59,1012.84,-105.0,-280.0,-472.5
22435,-36.84,16.47,1012.84,-70.0,-122.5,-87.5
22464,-36.97,16.47,1012.84,192.5,-35.0,70.0
22494,-37.09,16.47,1012.84,227.5,-157.5,52.5
22523,-36.97,16.47,1012.72,175.0,-87.5,0.0
22553,-36.84,16.47,1012.72,-175.0,52.5,-52.5
22582,-36.84,16.47,1012.84,175.0,-35.0,-122.5
22612,-37.21,16.35,1012.84,140.0,122.5,210.0
22641,-37.33,16.35,1012.84,70.0,105.0,262.5
22671,-37.58,16.35,1012.84,157.5,-140.0,-105.0
22700,-38.06,16.35,1012.84,52.5,210.0,367.5
22730,-37.82,16.35,1012.84,700.0,-525.0,52.5
22759,-37.45,16.35,1012.72,-262.5,-70.0,-175.0
22788,-37.7,16.35,1012.84,70.0,-437.5,-210.0
22817,-37.82,16.35,1012.72,52.5,-52.5,0.0
22846,-37.82,16.35,1012.84,455.0,-367.5,35.0
22876,-37.82,16.47,1012.6,472.5,-490.0,-140.0
22905,-37.82,16.47,1012.6,-175.0,35.0,-157.5
22935,-38.06,16.35,1012.6,-87.5,-140.0,-52.5
22964,-38.19,16.35,1012.6,280.0,-157.5,87.5
22994,-38.06,16.47,1012.6,315.0,-262.5,-70.0
23023,-38.06,16.59,1012.6,70.0,-280.0,-157.5
23053,-38.06,16.59,1012.6,52.5,-210.0,-105.0
23082,-38.19,16.59,1012.6,-17.5,157.5,105.0
23112,-38.31,16.59,1012.6,210.0,-192.5,35.0
23141,-38.31,16.59,1012.6,280.0,-367.5,-122.5
23171,-38.19,16.59,1012.6,472.5,-175.0,105.0
23200,-37.82,16.71,1012.6,-245.0,630.0,140.0
23230,-38.31,16.84,1012.6,140.0,-402.5,-437.5
23259,-38.67,17.08,1012.72,210.0,-367.5,315.0
23289,-38.43,17.08,1012.84,-35.0,-175.0,-402.5
23318,-38.8,16.84,1012.6,52.5,105.0,-87.5
23347,-38.92,16.59,1012.48,227.5,-402.5,227.5
23376,-38.55,16.59,1012.6,245.0,-192.5,-262.5
23405,-38.92,16.47,1012.36,122.5,-175.0,-175.0
23434,-39.16,16.35,1012.36,105.0,-332.5,157.5
23463,-39.04,16.59,1012.6,350.0,-560.0,157.5
23493,-38.43,16.84,1012.72,262.5,-262.5,140.0
23522,-37.94,17.08,1012.6,-210.0,262.5,-70.0
23552,-38.19,16.96,1012.72,-70.0,87.5,-280.0
23581,-38.55,16.96,1012.72,315.0,-105.0,-105.0
23611,-38.8,16.96,1012.6,315.0,-175.0,-227.5
23640,-38.92,17.08,1012.6,52.5,-140.0,-87.5
23670,-39.04,17.08,1012.6,332.5,-525.0,-280.0
23699,-38.92,16.84,1012.48,542.5,-665.0,-192.5
23729,-38.55,16.84,1012.48,175.0,157.5,192.5
23758,-38.55,17.08,1012.6,-175.0,315.0,-87.5
23788,-38.67,17.08,1012.6,52.5,-52.5,-35.0
23818,-38.92,17.08,1012.6,122.5,-227.5,0.0
23848,-38.92,17.32,1012.72,262.5,-70.0,-87.5
23878,-39.04,17.45,1012.84,-70.0,262.5,-140.0
23907,-39.28,17.2,1012.6,297.5,-262.5,0.0
23937,-39.16,17.2,1012.6,192.5,-227.5,52.5
23966,-39.04,17.45,1012.72,192.5,-280.0,-280.0
23995,-39.16,17.32,1012.84,175.0,0.0,35.0
24024,-39.16,17.32,1012.84,122.5,17.5,157.5
24054,-39.16,17.57,1012.84,-52.5,35.0,-105.0
24083,-39.53,17.57,1012.84,52.5,-122.5,-210.0
24113,-39.77,17.45,1012.84,315.0,-437.5,35.0
24142,-39.77,17.57,1012.84,227.5,-245.0,17.5
24172,-39.77,17.57,1012.84,175.0,-280.0,0.0
24201,-39.65,17.69,1012.97,262.5,-245.0,52.5
24231,-39.53,17.81,1012.84,315.0,-175.0,35.0
24260,-39.65,17.81,1012.84,105.0,-297.5,-157.5
24290,-39.89,17.81,1012.84,157.5,-315.0,52.5
24319,-40.14,17.81,1012.84,367.5,-560.0,-52.5
24349,-39.89,17.81,1012.84,175.0,-332.5,245.0
24378,-39.53,18.06,1012.72,87.5,-437.5,-70.0
24407,-39.28,18.06,1012.84,-52.5,-70.0,35.0
24437,-39.28,18.06,1012.72,280.0,-280.0,-70.0
24466,-39.53,18.06,1012.84,245.0,-210.0,105.0
24495,-39.53,18.18,1012.72,402.5,-525.0,-157.5
24524,-39.53,18.3,1012.72,17.5,-262.5,0.0
24554,-39.41,18.54,1012.72,-35.0,-175.0,-87.5
24583,-39.28,18.54,1012.84,17.5,-122.5,-122.5
24613,-39.16,18.54,1012.84,332.5,-280.0,105.0
24642,-38.8,18.54,1012.84,-17.5,140.0,-70.0
24672,-38.8,18.67,1012.72,52.5,-175.0,-227.5
24701,-39.16,18.54,1012.72,-35.0,105.0,0.0
24731,-39.41,18.54,1012.72,455.0,-490.0,-52.5
24760,-39.53,18.54,1012.6,105.0,-350.0,122.5
24790,-39.28,18.54,1012.6,210.0,-402.5,-17.5
24819,-38.8,18.79,1012.72,210.0,-245.0,105.0
24849,-38.31,18.91,1012.72,175.0,-140.0,-192.5
24878,-38.55,18.79,1012.6,35.0,-52.5,-87.5
24907,-38.8,18.67,1012.6,140.0,-122.5,70.0
24937,-38.8,18.79,1012.6,245.0,-332.5,52.5
24966,-38.8,18.91,1012.6,157.5,-350.0,17.5
24996,-38.43,19.03,1012.6,70.0,-140.0,-35.0
25025,-38.31,19.03,1012.6,245.0,-262.5,-87.5
25055,-38.31,19.15,1012.6,87.5,-140.0,17.5
25084,-38.43,19.28,1012.6,175.0,-245.0,-105.0
25113,-38.55,19.28,1012.6,157.5,-315.0,17.5
25142,-38.55,19.28,1012.6,87.5,-350.0,-17.5
25172,-38.43,19.4,1012.72,17.5,-140.0,17.5
25201,-38.31,19.4,1012.6,105.0,-315.0,-17.5
25231,-38.31,19.4,1012.6,87.5,-332.5,70.0
25260,-38.06,19.4,1012.6,-157.5,-157.5,-105.0
25290,-38.06,19.4,1012.6,-105.0,-192.5,-17.5
25319,-38.19,19.4,1012.6,192.5,-175.0,210.0
25349,-37.94,19.52,1012.6,87.5,-87.5,87.5
25379,-37.94,19.52,1012.6,-315.0,-157.5,-262.5
25409,-38.06,19.28,1012.6,-35.0,-210.0,52.5
25438,-37.94,19.28,1012.6,105.0,-297.5,52.5
25467,-37.82,19.28,1012.6,507.5,-682.5,-245.0
25496,-37.82,19.28,1012.48,52.5,-262.5,-87.5
25525,-37.7,19.15,1012.48,-630.0,350.0,-105.0
25554,-37.82,19.15,1012.6,-262.5,560.0,52.5
25583,-37.58,19.03,1012.6,262.5,-332.5,-105.0
25612,-37.45,19.03,1012.6,-52.5,-175.0,-210.0
25641,-37.58,18.91,1012.48,-297.5,87.5,-192.5
25671,-37.58,18.79,1012.6,-192.5,17.5,-17.5
25700,-37.82,18.54,1012.6,-35.0,-192.5,-17.5
25730,-37.82,18.3,1012.6,-17.5,-140.0,87.5
25759,-37.7,18.3,1012.6,-87.5,-105.0,52.5
25789,-37.58,18.3,1012.6,17.5,-175.0,-140.0
25818,-37.7,18.06,1012.6,87.5,-140.0,35.0
25848,-37.82,17.93,1012.6,175.0,-70.0,175.0
25877,-37.82,17.81,1012.6,17.5,-87.5,-17.5
25907,-37.94,17.57,1012.72,210.0,-402.5,-105.0
25936,-38.06,17.57,1012.6,315.0,-437.5,35.0
25966,-37.94,17.45,1012.6,787.5,-1155.0,-490.0
25995,-37.58,17.45,1012.6,192.5,52.5,-192.5
26024,-37.58,17.32,1012.48,-472.5,402.5,-315.0
26053,-37.82,17.2,1012.6,70.0,-175.0,-245.0
26082,-37.82,17.08,1012.6,210.0,-175.0,17.5
26112,-37.58,16.96,1012.72,455.0,-52.5,-35.0
26141,-37.33,16.96,1012.6,17.5,245.0,17.5
26171,-37.58,16.96,1012.6,17.5,-122.5,-315.0
26200,-37.94,16.96,1012.84,367.5,-350.0,-87.5
26230,-37.94,16.96,1012.6,560.0,-682.5,-262.5
26259,-37.94,16.84,1012.6,210.0,-455.0,-280.0
26289,-37.82,16.84,1012.6,105.0,-87.5,105.0
26318,-37.7,17.08,1012.72,192.5,-87.5,17.5
26348,-37.82,17.08,1012.72,647.5,-507.5,-297.5
26377,-37.94,17.08,1012.6,525.0,-595.0,-262.5
26407,-38.06,17.08,1012.6,-175.0,315.0,332.5
26436,-37.82,17.32,1012.84,542.5,-577.5,-105.0
26466,-37.58,17.57,1012.84,350.0,-192.5,17.5
26495,-37.58,17.57,1012.72,140.0,-87.5,-35.0
26524,-37.58,17.57,1012.84,-192.5,262.5,70.0
26554,-37.58,17.57,1012.84,385.0,-227.5,0.0
26583,-37.58,17.81,1012.84,315.0,-420.0,-227.5
26612,-37.58,17.93,1012.84,140.0,-87.5,-52.5
26641,-37.58,18.06,1012.84,-35.0,-52.5,17.5
26671,-37.45,18.18,1013.09,210.0,-227.5,-157.5
26700,-37.45,18.3,1013.09,210.0,-105.0,0.0
26730,-37.45,18.3,1012.97,87.5,-52.5,-70.0
26759,-37.58,18.42,1013.09,157.5,-17.5,35.0
26789,-37.58,18.42,1012.97,87.5,-70.0,-70.0
26818,-37.7,18.54,1013.09,87.5,-122.5,52.5
26848,-37.7,18.67,1013.09,315.0,-210.0,-52.5
26877,-37.82,18.67,1013.09,297.5,-140.0,35.0
26907,-37.82,18.67,1012.84,175.0,-315.0,-140.0
26936,-37.82,18.79,1012.84,-105.0,-52.5,-17.5
26966,-37.82,18.79,1012.84,245.0,-192.5,0.0
26996,-37.7,18.91,1012.84,297.5,-192.5,-35.0
27025,-37.58,19.03,1012.84,175.0,-140.0,-105.0
27054,-37.7,19.03,1012.72,0.0,-70.0,-105.0
27083,-37.94,19.28,1012.97,-17.5,70.0,87.5
27113,-38.06,19.28,1012.84,490.0,-332.5,-52.5
27142,-38.19,19.15,1012.84,455.0,-612.5,-87.5
27172,-38.06,19.4,1012.84,0.0,122.5,227.5
27201,-37.94,19.52,1012.97,245.0,-105.0,87.5
27231,-37.94,19.76,1012.97,280.0,-192.5,-70.0
27260,-38.06,19.76,1012.84,332.5,-455.0,-105.0
27290,-38.31,19.76,1012.84,35.0,-122.5,87.5
27319,-38.19,19.76,1012.84,-70.0,17.5,105.0
27349,-38.06,19.89,1012.84,52.5,-105.0,35.0
27378,-37.82,20.01,1012.84,-70.0,140.0,0.0
27408,-38.06,20.01,1012.97,-52.5,157.5,35.0
27437,-38.31,20.13,1012.84,210.0,-175.0,17.5
27467,-38.31,20.01,1012.84,105.0,-140.0,35.0
27496,-38.31,20.01,1012.97,-35.0,-35.0,-17.5
27526,-38.31,20.13,1012.97,17.5,-17.5,87.5
27556,-38.43,20.13,1013.09,227.5,-227.5,-70.0
27585,-38.55,20.13,1013.09,297.5,-210.0,17.5
27615,-38.43,20.13,1012.97,-87.5,35.0,35.0
27644,-38.55,20.25,1013.09,0.0,17.5,-52.5
27674,-38.67,20.25,1013.09,455.0,-332.5,-140.0
27703,-38.8,20.13,1012.97,210.0,-17.5,140.0
27733,-38.92,20.13,1012.84,367.5,-490.0,-52.5
27762,-38.8,20.25,1012.84,-17.5,-210.0,35.0
27792,-38.8,20.25,1012.84,35.0,-122.5,-175.0
27821,-39.04,20.25,1012.84,367.5,-402.5,-157.5
27851,-39.04,20.25,1012.72,-70.0,105.0,210.0
27880,-39.04,20.37,1012.84,210.0,-297.5,-87.5
27910,-39.04,20.37,1012.84,140.0,-105.0,-52.5
27939,-39.28,20.37,1012.84,175.0,-157.5,35.0
27969,-39.28,20.37,1012.84,525.0,-577.5,-122.5
27998,-39.16,20.37,1012.6,-157.5,140.0,245.0
28028,-38.92,20.5,1012.84,122.5,-140.0,-87.5
28057,-39.04,20.62,1012.84,175.0,-157.5,-105.0
28087,-39.28,20.5,1012.84,262.5,-245.0,35.0
28116,-39.28,20.5,1012.6,17.5,-140.0,0.0
28145,-39.28,20.5,1012.72,105.0,-402.5,-157.5
28174,-39.28,20.62,1012.84,472.5,-472.5,-35.0
28203,-39.04,20.74,1012.84,-105.0,315.0,245.0
28232,-39.16,20.74,1012.84,122.5,-402.5,-280.0
28261,-39.28,20.74,1012.84,630.0,-682.5,-70.0
28291,-39.04,20.86,1012.84,-210.0,280.0,210.0
28320,-38.92,20.98,1012.84,-140.0,-122.5,-280.0
28349,-39.16,20.86,1012.84,52.5,-17.5,52.5
28378,-39.16,20.86,1012.84,0.0,-52.5,35.0
28408,-39.16,20.98,1012.84,315.0,-350.0,-52.5
28437,-39.16,20.86,1012.72,87.5,-262.5,-52.5
28467,-38.92,20.86,1012.72,-70.0,35.0,70.0
28497,-38.8,20.98,1012.84,-105.0,87.5,-105.0
28527,-39.28,20.86,1012.84,175.0,-227.5,-140.0
28556,-39.53,20.86,1012.72,490.0,-315.0,262.5
28586,-39.28,20.98,1012.6,0.0,-140.0,-70.0
28616,-39.16,20.98,1012.6,-105.0,-35.0,-70.0
28645,-39.28,20.86,1012.6,227.5,-157.5,-35.0
28674,-39.28,20.74,1012.6,315.0,-122.5,122.5
28703,-39.28,20.86,1012.48,-140.0,122.5,35.0
28733,-39.41,20.86,1012.6,385.0,-315.0,-70.0
28762,-39.53,20.86,1012.6,227.5,-245.0,-17.5
28792,-39.53,20.98,1012.6,210.0,-175.0,-17.5
28821,-39.53,20.98,1012.48,-105.0,105.0,17.5
28851,-39.65,20.98,1012.48,315.0,-367.5,52.5
28880,-39.53,20.98,1012.6,227.5,-280.0,0.0
28910,-39.65,21.11,1012.6,105.0,-70.0,-17.5
28939,-39.77,21.11,1012.36,70.0,-105.0,70.0
28969,-39.77,20.98,1012.48,280.0,-455.0,-122.5
28998,-39.77,20.98,1012.48,210.0,-192.5,140.0
29028,-39.65,21.11,1012.48,227.5,-262.5,-87.5
29057,-39.77,21.23,1012.6,350.0,-297.5,35.0
29087,-39.77,21.23,1012.48,280.0,-262.5,87.5
29116,-39.77,21.35,1012.36,17.5,-175.0,-70.0
29146,-39.65,21.35,1012.48,105.0,-87.5,105.0
29176,-39.53,21.47,1012.48,17.5,17.5,35.0
29205,-39.77,21.47,1012.36,297.5,-420.0,-175.0
29234,-39.89,21.47,1012.36,-122.5,-35.0,105.0
29263,-39.77,21.59,1012.23,332.5,-525.0,-52.5
29293,-39.77,21.59,1012.23,0.0,-157.5,70.0
29322,-39.65,21.72,1012.36,0.0,-385.0,-105.0
29352,-39.65,21.72,1012.48,17.5,-192.5,-17.5
29381,-39.65,21.72,1012.48,210.0,-245.0,52.5
29411,-39.77,21.72,1012.48,157.5,-472.5,-192.5
29440,-40.02,21.72,1012.36,0.0,-595.0,-157.5
29470,-39.89,21.72,1012.36,-17.5,-437.5,-105.0
29499,-39.53,21.72,1012.48,385.0,-612.5,0.0
29529,-38.92,21.72,1012.48,-140.0,105.0,35.0
29558,-38.67,21.72,1012.48,-52.5,17.5,-17.5
29588,-38.8,21.72,1012.48,-297.5,157.5,35.0
29617,-39.04,21.59,1012.6,87.5,-332.5,-52.5
29647,-39.04,21.47,1012.6,105.0,-227.5,70.0
29676,-39.04,21.47,1012.6,122.5,-280.0,-52.5
29705,-38.92,21.35,1012.6,70.0,-210.0,52.5
29735,-39.04,21.47,1012.72,262.5,-332.5,-140.0
29764,-39.16,21.59,1012.84,140.0,52.5,175.0
29794,-39.04,21.47,1012.84,0.0,-35.0,210.0
29823,-38.67,21.35,1012.72,192.5,-87.5,70.0
29853,-38.31,21.23,1012.72,192.5,-35.0,87.5
29882,-38.06,21.23,1012.72,-52.5,105.0,-35.0
29912,-38.31,21.11,1012.6,367.5,-665.0,-315.0
29941,-38.55,20.98,1012.6,17.5,-210.0,0.0
29971,-38.55,21.11,1012.6,-70.0,17.5,0.0
30001,-38.55,21.11,1012.84,17.5,175.0,210.0
30031,-38.31,21.11,1012.72,105.0,17.5,70.0
30061,-38.31,20.98,1012.84,105.0,-87.5,-122.5
30091,-38.31,20.74,1012.6,87.5,87.5,52.5
30121,-38.43,20.74,1012.72,52.5,35.0,-52.5
30151,-38.67,20.74,1012.84,577.5,-420.0,-35.0
30180,-38.92,20.74,1012.84,927.5,-1015.0,-367.5
30209,-38.8,20.74,1012.6,175.0,-297.5,-210.0
30238,-38.55,20.98,1012.84,-175.0,262.5,70.0
30267,-38.31,21.23,1012.97,157.5,-122.5,-280.0
30296,-38.55,20.98,1012.84,175.0,-35.0,-52.5
30325,-38.67,20.98,1012.6,192.5,-17.5,70.0
30355,-38.8,21.23,1012.72,-192.5,192.5,17.5
30384,-38.8,21.23,1012.84,332.5,-367.5,-52.5
30414,-38.92,21.23,1012.84,315.0,-332.5,-140.0
30443,-38.92,21.11,1012.72,245.0,-157.5,35.0
30473,-39.04,21.23,1012.84,70.0,35.0,-17.5
30502,-38.92,21.47,1012.84,140.0,-105.0,-70.0
30532,-39.04,21.47,1012.84,157.5,-297.5,-192.5
30561,-39.16,21.47,1012.84,157.5,-70.0,52.5
30591,-39.28,21.47,1012.84,-157.5,140.0,70.0
30620,-39.41,21.47,1012.84,350.0,-280.0,35.0
30650,-39.53,21.47,1012.84,420.0,-437.5,70.0
30679,-39.53,21.72,1012.84,262.5,-122.5,70.0
30708,-39.28,21.72,1012.84,-105.0,122.5,-52.5
30737,-39.41,21.84,1012.97,192.5,-280.0,-105.0
30766,-39.41,21.72,1012.97,350.0,-245.0,-17.5
30795,-39.53,21.84,1012.84,52.5,-157.5,-52.5
30824,-39.53,21.96,1012.97,175.0,-105.0,-52.5
30854,-39.65,22.08,1012.97,227.5,-35.0,-35.0
30883,-39.77,22.08,1012.97,227.5,-367.5,-122.5
30912,-39.77,22.2,1012.84,280.0,-402.5,-175.0
30941,-39.65,22.2,1012.84,-17.5,35.0,87.5
30971,-39.53,22.2,1012.97,367.5,-280.0,-70.0
31000,-39.53,22.2,1012.84,175.0,245.0,245.0
31030,-39.77,22.33,1012.84,175.0,-315.0,-210.0
31059,-40.02,22.45,1012.84,367.5,-227.5,175.0
31089,-40.02,22.57,1012.84,-245.0,280.0,140.0
31118,-39.89,22.69,1012.84,157.5,-455.0,-315.0
31148,-40.02,22.69,1012.97,-17.5,-17.5,122.5
31177,-39.89,22.69,1013.09,332.5,-385.0,-70.0
31207,-39.77,22.81,1012.97,210.0,-227.5,-175.0
31236,-40.02,22.81,1012.97,-35.0,35.0,52.5
31265,-40.02,22.81,1012.97,87.5,-157.5,-17.5
31295,-40.02,22.94,1012.97,52.5,-70.0,-35.0
31324,-40.14,22.94,1013.09,70.0,-157.5,52.5
31354,-40.26,22.94,1013.09,332.5,-245.0,0.0
31383,-40.26,22.94,1012.84,210.0,-315.0,-17.5
31413,-40.14,22.94,1012.97,-157.5,0.0,35.0
31442,-40.14,23.06,1012.97,367.5,-385.0,-140.0
31472,-40.26,23.06,1012.97,87.5,-52.5,35.0
31501,-40.26,23.06,1012.84,210.0,-367.5,-105.0
31531,-40.14,23.06,1012.84,35.0,-70.0,52.5
31560,-40.02,23.06,1012.97,175.0,-175.0,-52.5
31590,-40.02,23.18,1012.97,210.0,-52.5,52.5
31619,-40.26,23.18,1012.84,367.5,-332.5,-52.5
31649,-40.26,23.3,1012.84,122.5,-227.5,-105.0
31678,-40.14,23.3,1012.84,-105.0,-245.0,-192.5
31708,-40.14,23.42,1012.84,35.0,-140.0,-87.5
31737,-40.14,23.3,1012.84,175.0,-105.0,-17.5
31767,-40.14,23.3,1012.72,262.5,-262.5,-70.0
31796,-40.26,23.3,1012.72,52.5,-105.0,-70.0
31825,-40.38,23.3,1012.72,192.5,-210.0,-17.5
31854,-40.5,23.42,1012.84,17.5,-52.5,17.5
31883,-40.5,23.42,1012.72,525.0,-682.5,-245.0
31912,-40.5,23.3,1012.6,-70.0,-17.5,175.0
31941,-40.26,23.55,1012.72,192.5,-525.0,-175.0
31970,-40.02,23.67,1012.84,0.0,140.0,52.5
31999,-40.02,23.55,1012.72,157.5,-105.0,-35.0
32029,-40.14,23.55,1012.6,122.5,-105.0,-52.5
32058,-40.38,23.42,1012.48,52.5,-297.5,-122.5
32088,-40.38,23.42,1012.48,315.0,-332.5,52.5
32117,-40.26,23.55,1012.36,157.5,-227.5,-87.5
32147,-40.26,23.67,1012.36,-17.5,-35.0,17.5
32176,-40.26,23.67,1012.36,122.5,-280.0,-122.5
32206,-40.26,23.55,1012.23,245.0,-262.5,-35.0
32235,-40.14,23.67,1012.11,70.0,-87.5,17.5
32265,-40.26,23.67,1012.11,70.0,-262.5,-70.0
32294,-40.26,23.67,1012.11,210.0,-227.5,-52.5
32324,-40.26,23.67,1011.99,157.5,-350.0,-17.5
32353,-40.14,23.79,1012.11,175.0,-175.0,0.0
32382,-40.26,23.79,1012.11,297.5,-525.0,-315.0
32411,-40.26,23.67,1011.99,-52.5,-245.0,35.0
32440,-39.89,23.79,1011.99,35.0,-210.0,-35.0
32470,-39.65,23.91,1012.11,140.0,-17.5,-70.0
32499,-39.65,23.91,1011.99,245.0,-140.0,17.5
32529,-39.77,23.79,1011.99,-245.0,-35.0,-140.0
32558,-39.89,23.79,1011.99,262.5,-350.0,-35.0
32588,-39.77,23.79,1011.87,192.5,-315.0,-52.5
32617,-39.53,23.67,1011.99,35.0,70.0,105.0
32647,-39.53,23.79,1011.87,122.5,-192.5,-157.5
32676,-39.53,23.79,1011.87,-140.0,210.0,-35.0
32706,-39.89,23.79,1011.99,122.5,-157.5,-192.5
32735,-40.26,23.67,1011.99,367.5,-525.0,35.0
32765,-40.26,23.67,1011.87,297.5,-420.0,52.5
32794,-39.77,23.79,1011.99,-17.5,-35.0,70.0
32824,-39.53,23.91,1012.11,17.5,-70.0,-87.5
32854,-39.65,23.79,1011.99,105.0,-140.0,-140.0
32884,-40.02,23.67,1011.87,262.5,-472.5,-87.5
32913,-39.89,23.67,1011.99,87.5,-245.0,70.0
32942,-39.53,23.67,1012.11,227.5,-210.0,-35.0
32971,-39.41,23.79,1012.11,-140.0,175.0,35.0
33000,-39.53,23.91,1012.23,192.5,-262.5,-105.0
33029,-39.77,23.79,1012.11,140.0,-245.0,-17.5
33058,-39.77,23.91,1012.11,17.5,-245.0,52.5
33088,-39.53,23.91,1012.36,105.0,-192.5,-35.0
33117,-39.53,23.79,1012.23,35.0,-262.5,-17.5
33147,-39.77,23.79,1012.23,0.0,-52.5,245.0
33176,-39.53,23.79,1012.23,-227.5,140.0,140.0
33206,-39.53,23.79,1012.23,35.0,-262.5,17.5
33235,-39.53,23.67,1012.23,-17.5,-175.0,-35.0
33265,-39.53,23.67,1012.23,52.5,-210.0,-35.0
33294,-39.65,23.67,1012.36,105.0,-210.0,17.5
33324,-39.65,23.67,1012.23,210.0,-350.0,-35.0
33353,-39.77,23.42,1012.23,122.5,-507.5,-87.5
33383,-39.53,23.42,1012.23,-52.5,-192.5,192.5
33412,-39.16,23.55,1012.36,-227.5,157.5,-140.0
33442,-39.16,23.18,1012.23,140.0,-122.5,35.0
33471,-39.16,22.94,1012.11,-52.5,210.0,262.5
33500,-39.28,23.18,1012.11,-157.5,52.5,-122.5
33529,-39.65,23.18,1012.23,-262.5,52.5,52.5
33558,-40.02,22.94,1012.23,52.5,-227.5,17.5
33588,-40.02,22.69,1012.11,332.5,-612.5,0.0
33617,-39.77,22.57,1012.11,-175.0,-175.0,35.0
33647,-39.41,22.57,1012.23,-52.5,-227.5,-52.5
33676,-39.28,22.57,1012.36,-122.5,140.0,-17.5
33706,-39.28,22.45,1012.36,157.5,-192.5,-105.0
33735,-39.65,22.2,1012.11,-87.5,70.0,-17.5
33765,-39.77,21.96,1012.11,52.5,-192.5,-35.0
33794,-39.65,21.96,1012.11,35.0,-70.0,70.0
33824,-39.53,21.84,1012.11,35.0,0.0,-17.5
33854,-39.65,21.72,1012.11,192.5,-227.5,-157.5
33884,-39.77,21.47,1012.23,35.0,122.5,87.5
33914,-39.89,21.47,1012.11,52.5,-35.0,-87.5
33944,-40.26,21.23,1012.11,122.5,-175.0,0.0
33974,-40.26,21.11,1012.11,262.5,-210.0,105.0
34004,-40.26,21.23,1012.23,0.0,-87.5,-122.5
34034,-40.38,20.98,1012.23,402.5,-420.0,-157.5
34064,-40.38,20.86,1012.11,0.0,-17.5,35.0
34094,-40.38,20.98,1012.23,472.5,-367.5,-175.0
34123,-40.5,20.86,1012.23,-192.5,210.0,70.0
34153,-40.5,20.86,1012.36,140.0,-210.0,-122.5
34182,-40.75,20.74,1012.36,385.0,-455.0,-87.5
34212,-40.75,20.74,1012.23,210.0,-52.5,17.5
34241,-40.75,20.74,1012.11,245.0,-140.0,-17.5
34271,-40.99,20.62,1012.11,367.5,-350.0,-35.0
34300,-40.99,20.74,1012.11,455.0,-332.5,122.5
34330,-40.99,20.86,1012.11,-52.5,210.0,-87.5
34359,-40.99,20.74,1012.11,192.5,-385.0,-35.0
34389,-40.75,20.74,1012.11,262.5,-105.0,157.5
34418,-40.63,20.98,1012.23,52.5,17.5,-122.5
34448,-40.75,21.11,1012.23,192.5,-192.5,-52.5
34477,-40.99,20.98,1012.11,122.5,-192.5,-122.5
34507,-41.24,20.98,1012.11,542.5,-595.0,-122.5
34536,-41.11,20.98,1012.11,-17.5,-52.5,140.0
34566,-40.75,21.23,1012.23,-122.5,70.0,-35.0
34595,-40.87,21.23,1012.36,262.5,-157.5,-157.5
34624,-41.11,21.11,1012.11,122.5,-70.0,52.5
34654,-41.11,21.23,1012.23,157.5,-122.5,17.5
34683,-41.11,21.23,1012.23,192.5,-157.5,0.0
34713,-40.99,21.35,1012.23,87.5,-35.0,35.0
34742,-41.11,21.35,1012.23,297.5,-245.0,-140.0
34771,-41.36,21.23,1012.23,297.5,-227.5,17.5
34800,-41.48,21.47,1012.11,332.5,-175.0,175.0
34830,-41.24,21.59,1012.11,-262.5,17.5,-175.0
34859,-41.36,21.59,1012.11,245.0,-402.5,-245.0
34889,-41.48,21.47,1012.11,210.0,-280.0,52.5
34918,-41.24,21.59,1012.11,367.5,-280.0,-52.5
34948,-41.24,21.72,1011.99,87.5,-52.5,-140.0
34977,-41.48,21.72,1011.99,70.0,0.0,140.0
35007,-41.6,21.84,1011.99,490.0,-525.0,-157.5
35036,-41.72,21.84,1011.87,315.0,-175.0,192.5
35066,-41.36,21.96,1011.87,70.0,-122.5,-17.5
35095,-41.24,22.08,1011.87,35.0,-87.5,-52.5
35125,-41.36,22.08,1011.87,420.0,-315.0,-122.5
35154,-41.48,22.2,1011.87,35.0,-52.5,-17.5
35183,-41.6,22.33,1011.75,315.0,-490.0,-122.5
35212,-41.6,22.33,1011.75,17.5,-87.5,-17.5
35241,-41.48,22.45,1011.87,297.5,-297.5,0.0
35271,-41.24,22.45,1011.87,157.5,-227.5,-140.0
35300,-41.24,22.45,1011.87,227.5,-227.5,-35.0
35330,-41.24,22.69,1011.99,280.0,-105.0,-17.5
35359,-41.48,22.69,1011.87,192.5,-385.0,-227.5
35388,-41.72,22.57,1011.75,17.5,-140.0,105.0
35417,-41.36,22.69,1011.87,35.0,-35.0,70.0
35447,-41.11,22.94,1011.87,87.5,-17.5,-35.0
35476,-41.11,22.94,1011.87,-140.0,210.0,-52.5
35506,-41.36,22.94,1011.87,175.0,-227.5,-17.5
35535,-41.48,22.94,1011.87,332.5,-140.0,122.5
35565,-41.36,23.06,1011.87,245.0,-87.5,0.0
35595,-41.24,23.18,1011.99,402.5,-262.5,35.0
35625,-41.24,23.18,1011.75,315.0,-367.5,-52.5
35654,-41.24,23.42,1011.75,-87.5,0.0,17.5
35684,-41.24,23.42,1011.87,140.0,-122.5,-87.5
35713,-41.36,23.42,1011.75,-70.0,262.5,140.0
35742,-41.36,23.42,1011.75,0.0,52.5,17.5
35772,-41.48,23.42,1011.87,-17.5,-17.5,-70.0
35801,-41.72,23.55,1011.87,0.0,17.5,-52.5
35831,-41.72,23.55,1011.87,227.5,-245.0,-17.5
35860,-41.72,23.55,1011.87,52.5,-52.5,0.0
35890,-41.85,23.55,1011.87,245.0,-332.5,-175.0
35919,-41.97,23.55,1011.87,175.0,-210.0,-70.0
35949,-42.09,23.67,1011.87,-70.0,-157.5,-35.0
35978,-42.21,23.67,1011.87,-70.0,-35.0,-17.5
36008,-42.21,23.55,1011.99,472.5,-595.0,-17.5
36037,-42.09,23.55,1011.87,-140.0,-35.0,-35.0
36067,-42.09,23.67,1011.99,105.0,-87.5,-87.5
36096,-42.09,23.67,1012.11,-52.5,52.5,35.0
36126,-42.33,23.67,1012.11,297.5,-332.5,-122.5
36155,-42.46,23.67,1012.11,175.0,-192.5,70.0
36185,-42.46,23.67,1012.11,70.0,-175.0,17.5
36215,-42.33,23.67,1012.11,210.0,-245.0,-87.5
36244,-42.46,23.67,1012.11,70.0,-105.0,-105.0
36273,-42.46,23.55,1011.99,192.5,-227.5,70.0
36302,-42.46,23.67,1011.87,-157.5,17.5,-87.5
36332,-42.46,23.67,1011.87,105.0,-262.5,-87.5
36361,-42.7,23.55,1011.87,175.0,-227.5,-105.0
36390,-42.7,23.55,1011.99,0.0,-87.5,-17.5
36419,-42.7,23.67,1011.87,385.0,-507.5,-157.5
36449,-42.46,23.67,1011.75,-297.5,-122.5,-280.0
36478,-42.46,23.55,1011.87,-87.5,-367.5,-350.0
36508,-42.58,23.42,1011.87,70.0,-35.0,87.5
36537,-42.46,23.18,1011.87,70.0,0.0,17.5
36567,-42.46,23.18,1011.87,-17.5,87.5,17.5
36597,-42.58,23.18,1011.87,105.0,-122.5,-105.0
36627,-42.94,23.06,1011.87,280.0,-227.5,140.0
36656,-42.82,23.18,1011.99,52.5,122.5,280.0
36686,-42.7,23.18,1011.99,385.0,-210.0,0.0
36716,-42.94,23.18,1011.87,-157.5,192.5,122.5
36746,-43.19,23.06,1011.87,-122.5,192.5,227.5
36775,-43.19,22.94,1011.87,-315.0,210.0,192.5
36804,-43.19,22.94,1011.87,-35.0,-87.5,35.0
36834,-43.43,22.94,1011.87,122.5,-280.0,-350.0
36863,-43.8,22.94,1011.75,105.0,-752.5,-682.5
36892,-43.92,22.69,1011.75,420.0,-735.0,70.0
36921,-43.19,22.69,1011.75,-175.0,-87.5,-315.0
36951,-43.19,22.69,1011.75,140.0,-367.5,-735.0
36980,-43.31,22.45,1011.75,-140.0,0.0,-315.0
37010,-43.31,22.45,1011.87,87.5,-332.5,-682.5
37039,-43.43,22.45,1011.87,17.5,-52.5,-280.0
37069,-43.43,22.33,1011.87,52.5,-70.0,-227.5
37098,-43.19,22.2,1011.99,157.5,-332.5,-735.0
37128,-43.43,22.08,1011.87,35.0,-280.0,-910.0
37157,-43.8,21.96,1011.75,-140.0,-35.0,122.5
37187,-43.55,21.84,1011.75,-175.0,175.0,455.0
37216,-43.31,21.84,1011.87,-332.5,507.5,297.5
37246,-43.55,21.72,1011.87,-297.5,122.5,-17.5
37275,-44.04,21.47,1011.87,-280.0,-105.0,17.5
37304,-44.41,21.23,1011.87,192.5,-402.5,140.0
37333,-44.29,20.98,1011.87,157.5,-262.5,140.0
37362,-44.16,20.86,1011.87,0.0,-105.0,-35.0
37392,-44.29,20.62,1011.87,-52.5,-175.0,140.0
37421,-44.29,20.62,1011.87,-35.0,-35.0,105.0
37451,-44.41,20.5,1011.99,332.5,-157.5,-210.0
37480,-44.9,20.13,1011.87,262.5,-157.5,35.0
37510,-44.9,20.01,1011.75,455.0,-647.5,-70.0
37539,-44.53,20.01,1011.87,245.0,-140.0,-70.0
37569,-44.29,20.01,1011.87,87.5,17.5,35.0
37599,-44.41,20.01,1011.99,70.0,122.5,52.5
37629,-44.65,19.76,1011.87,105.0,-140.0,-105.0
37658,-45.02,19.64,1011.75,210.0,-490.0,-175.0
37688,-44.9,19.64,1011.87,157.5,-262.5,52.5
37717,-44.65,19.76,1011.99,140.0,-35.0,87.5
37747,-44.65,19.64,1011.99,0.0,-157.5,-87.5
37777,-44.9,19.52,1011.99,192.5,-245.0,-52.5
37807,-44.9,19.52,1011.99,175.0,-297.5,-140.0
37836,-45.02,19.4,1011.99,227.5,-315.0,-35.0
37865,-44.9,19.52,1012.11,-70.0,175.0,105.0
37895,-44.9,19.52,1012.11,402.5,-245.0,-17.5
37924,-44.9,19.52,1012.11,402.5,-210.0,0.0
37954,-45.14,19.52,1011.99,297.5,-490.0,-227.5
37983,-45.02,19.64,1011.87,-140.0,-70.0,-122.5
38012,-45.02,19.52,1011.87,17.5,-192.5,-122.5
38041,-44.9,19.52,1011.87,52.5,87.5,35.0
38071,-44.9,19.4,1011.87,122.5,-105.0,17.5
38100,-44.9,19.52,1011.87,17.5,52.5,17.5
38130,-45.14,19.52,1011.87,105.0,-87.5,-157.5
38159,-45.51,19.52,1011.99,420.0,-297.5,0.0
38189,-45.38,19.28,1011.87,87.5,-87.5,105.0
38218,-45.14,19.52,1011.87,157.5,-87.5,-52.5
38248,-45.14,19.52,1011.99,210.0,-70.0,-70.0
38277,-45.38,19.52,1011.99,140.0,70.0,52.5
38307,-45.87,19.4,1012.11,350.0,-262.5,175.0
38336,-45.87,19.4,1011.99,140.0,-17.5,297.5
38365,-45.63,19.4,1012.11,70.0,402.5,297.5
38395,-45.51,19.52,1012.11,157.5,437.5,332.5
38424,-45.75,19.76,1011.99,367.5,17.5,35.0
38454,-45.99,19.76,1011.87,332.5,-332.5,-17.5
38483,-46.12,20.01,1011.99,297.5,-280.0,-87.5
38513,-46.12,20.01,1011.99,297.5,-420.0,-315.0
38542,-46.24,20.13,1011.99,262.5,-315.0,-192.5
38572,-46.36,20.25,1011.87,262.5,-350.0,-262.5
38601,-46.36,20.13,1011.87,157.5,-332.5,-52.5
38631,-46.36,20.13,1011.87,105.0,-122.5,0.0
38660,-46.36,20.25,1011.87,52.5,-227.5,-70.0
38690,-46.36,20.37,1011.99,192.5,-122.5,17.5
38719,-46.48,20.5,1011.99,157.5,-70.0,-70.0
38749,-46.6,20.62,1012.11,140.0,-192.5,-70.0
38778,-46.6,20.62,1012.11,175.0,-245.0,-52.5
38808,-46.6,20.74,1011.99,245.0,-350.0,-105.0
38837,-46.48,20.74,1011.87,0.0,-17.5,0.0
38867,-46.48,20.74,1011.87,35.0,-87.5,-87.5
38897,-46.48,20.74,1012.11,-17.5,35.0,-52.5
38926,-46.73,20.86,1012.11,140.0,-192.5,-17.5
38955,-46.85,20.86,1012.11,122.5,-87.5,227.5
38984,-46.85,20.98,1012.11,175.0,-192.5,-87.5
39014,-46.85,20.98,1012.11,350.0,-437.5,-157.5
39043,-46.97,21.11,1012.11,-35.0,-140.0,-52.5
39073,-46.97,21.23,1012.11,192.5,-315.0,-52.5
39102,-46.85,21.23,1012.11,210.0,-210.0,0.0
39132,-46.85,21.23,1012.11,-105.0,35.0,-52.5
39161,-46.97,21.23,1012.11,315.0,-402.5,-35.0
39191,-46.97,21.23,1012.11,122.5,-262.5,0.0
39220,-46.85,21.23,1012.11,157.5,-227.5,-175.0
39250,-46.85,21.35,1012.23,-157.5,210.0,175.0
39279,-46.85,21.35,1012.23,350.0,-455.0,-70.0
39309,-46.97,21.35,1012.11,17.5,-17.5,35.0
39339,-46.97,21.35,1012.11,227.5,-210.0,-52.5
39369,-47.09,21.35,1012.36,52.5,0.0,35.0
39399,-47.09,21.35,1012.23,455.0,-367.5,87.5
39428,-46.97,21.47,1012.11,-157.5,-17.5,-35.0
39457,-46.97,21.47,1012.11,122.5,-122.5,-17.5
39486,-47.09,21.47,1012.11,52.5,-87.5,17.5
39516,-47.09,21.47,1012.11,227.5,-332.5,17.5
39545,-47.21,21.47,1012.11,0.0,-35.0,-17.5
39575,-47.34,21.47,1012.23,280.0,-350.0,17.5
39604,-47.09,21.59,1012.23,52.5,-70.0,17.5
39634,-47.09,21.72,1012.36,157.5,-315.0,-280.0
39663,-47.34,21.47,1012.36,140.0,-175.0,175.0
39693,-47.34,21.59,1012.23,140.0,-192.5,17.5
39722,-47.09,21.59,1012.36,157.5,-192.5,-70.0
39752,-46.97,21.72,1012.36,175.0,-175.0,-17.5
39781,-47.21,21.84,1012.36,0.0,-192.5,-192.5
39811,-47.58,21.84,1012.36,245.0,-280.0,17.5
39840,-47.58,21.72,1012.23,140.0,-297.5,-17.5
39869,-47.09,21.84,1012.36,70.0,-52.5,105.0
39899,-46.85,21.96,1012.48,35.0,17.5,-35.0
39928,-47.09,21.96,1012.48,0.0,17.5,-52.5
39958,-47.34,21.96,1012.48,122.5,-192.5,-52.5
39987,-47.46,21.96,1012.48,122.5,-402.5,-70.0
40017,-47.34,21.96,1012.48,17.5,-87.5,122.5
40046,-47.09,21.96,1012.48,157.5,-175.0,-35.0
40076,-47.09,21.96,1012.48,-262.5,280.0,52.5
40105,-47.46,21.96,1012.6,105.0,-297.5,-140.0
40135,-47.7,21.84,1012.48,245.0,-402.5,87.5
40164,-47.58,21.84,1012.48,122.5,-332.5,-52.5
40194,-47.46,21.96,1012.6,-175.0,122.5,192.5
40223,-47.34,21.84,1012.48,157.5,-245.0,35.0
40253,-47.34,21.84,1012.48,-70.0,52.5,17.5
40283,-47.7,21.96,1012.6,560.0,-822.5,-315.0
40313,-47.95,21.72,1012.36,577.5,-945.0,-122.5
40342,-47.58,21.72,1012.36,-350.0,105.0,262.5
40371,-47.09,21.72,1012.36,-35.0,105.0,35.0
40401,-47.09,21.72,1012.48,-140.0,367.5,210.0
40430,-47.34,21.72,1012.36,332.5,-455.0,-105.0
40459,-47.34,21.59,1012.36,-297.5,35.0,-17.5
40488,-47.34,21.47,1012.36,140.0,-175.0,52.5
40518,-47.21,21.47,1012.36,-35.0,280.0,280.0
40547,-47.34,21.35,1012.23,315.0,-315.0,-157.5
40577,-47.46,21.35,1012.23,-17.5,0.0,87.5
40606,-47.58,21.47,1012.23,52.5,-175.0,0.0
40636,-47.7,21.35,1012.23,280.0,-87.5,122.5
40665,-47.58,21.23,1011.99,140.0,-315.0,52.5
40695,-47.21,21.23,1012.11,-315.0,437.5,245.0
40724,-47.09,21.23,1012.23,-210.0,-70.0,-350.0
40754,-47.58,20.98,1012.11,-367.5,0.0,-367.5
40783,-47.95,20.74,1012.11,385.0,-35.0,122.5
40813,-47.82,20.74,1012.11,-17.5,227.5,122.5
40842,-47.82,20.74,1012.11,52.5,-192.5,-17.5
40872,-47.82,20.5,1012.11,-35.0,210.0,280.0
40901,-47.82,20.5,1012.11,297.5,52.5,-122.5
40930,-48.19,20.37,1012.11,87.5,87.5,-210.0
40960,-48.92,20.25,1011.99,35.0,-157.5,-227.5
40989,-49.29,20.13,1011.87,227.5,-455.0,0.0
41019,-48.92,20.13,1011.99,-35.0,-70.0,-35.0
41048,-48.8,20.25,1012.11,490.0,-192.5,-105.0
41077,-48.92,20.25,1012.11,87.5,35.0,-35.0
41106,-49.29,20.01,1011.87,140.0,-262.5,-157.5
41136,-49.65,19.89,1011.75,0.0,-87.5,-17.5
41165,-49.53,19.89,1011.75,350.0,-157.5,-17.5
41195,-49.53,20.01,1011.87,-52.5,-52.5,-175.0
41224,-49.78,20.01,1011.87,17.5,-157.5,0.0
41254,-50.14,20.01,1011.75,157.5,-280.0,-140.0
41283,-50.39,19.76,1011.62,595.0,-595.0,-175.0
41313,-50.26,19.76,1011.62,175.0,-192.5,35.0
41342,-50.02,19.76,1011.75,0.0,-52.5,-175.0
41372,-50.26,19.76,1011.62,-17.5,70.0,0.0
41402,-50.39,19.76,1011.62,262.5,-210.0,-245.0
41431,-50.51,19.76,1011.5,-105.0,-17.5,0.0
41461,-50.26,19.89,1011.62,122.5,-157.5,-70.0
41490,-50.26,19.89,1011.62,192.5,-210.0,-192.5
41519,-50.39,19.89,1011.75,87.5,-157.5,-17.5
41548,-50.63,19.89,1011.75,280.0,-332.5,-192.5
41577,-51.0,19.76,1011.75,87.5,-490.0,0.0
41606,-50.63,19.76,1011.75,210.0,-770.0,-157.5
41636,-50.26,19.76,1011.75,-210.0,-490.0,-420.0
41665,-50.02,19.64,1011.87,-315.0,227.5,0.0
41695,-50.14,19.76,1012.11,402.5,-297.5,-192.5
41724,-50.51,19.76,1012.11,175.0,52.5,105.0
41754,-51.24,20.01,1012.11,822.5,-805.0,-17.5
41783,-51.24,20.01,1011.99,175.0,-297.5,385.0
41813,-50.63,20.01,1011.87,245.0,-735.0,-332.5
41842,-50.26,19.76,1011.87,157.5,-455.0,-262.5
41872,-50.14,19.76,1011.87,560.0,-595.0,-227.5
41901,-49.9,19.89,1011.99,315.0,-385.0,-87.5
41931,-49.53,20.25,1011.99,-227.5,-35.0,-140.0
41960,-49.53,20.25,1012.11,0.0,-437.5,-87.5
41989,-49.29,20.13,1012.11,157.5,-140.0,105.0
42018,-49.17,20.01,1012.11,210.0,-52.5,-35.0
42047,-49.04,20.13,1012.11,192.5,-70.0,-17.5
42077,-49.04,20.25,1012.23,0.0,-175.0,-122.5
42106,-49.17,20.37,1012.23,192.5,17.5,35.0
42136,-49.04,20.37,1012.11,192.5,-280.0,-17.5
42165,-48.8,20.37,1012.23,-105.0,17.5,140.0
42195,-48.68,20.5,1012.23,210.0,-332.5,-175.0
42224,-48.56,20.5,1012.36,-35.0,52.5,35.0
42254,-48.68,20.5,1012.23,140.0,-245.0,-262.5
42283,-49.04,20.62,1012.36,122.5,-210.0,-35.0
42313,-48.92,20.62,1012.36,157.5,-350.0,-35.0
42342,-48.8,20.62,1012.36,105.0,-140.0,0.0
42372,-48.56,20.62,1012.48,157.5,-140.0,0.0
42402,-48.43,20.62,1012.48,70.0,-175.0,-17.5
42432,-48.68,20.62,1012.48,227.5,-245.0,-140.0
42461,-48.68,20.62,1012.36,227.5,-420.0,-35.0
42490,-48.56,20.74,1012.48,157.5,-245.0,-17.5
42519,-48.31,20.74,1012.48,175.0,-175.0,17.5
42548,-48.31,20.74,1012.48,-70.0,-70.0,-35.0
42578,-48.31,20.74,1012.48,350.0,-490.0,-87.5
42607,-48.19,20.74,1012.48,70.0,0.0,105.0
42637,-48.07,20.86,1012.48,297.5,-140.0,-87.5
42666,-48.19,20.86,1012.36,52.5,-17.5,87.5
42696,-48.19,20.98,1012.48,332.5,-507.5,-157.5
42725,-48.07,20.98,1012.48,245.0,-420.0,0.0
42755,-47.95,20.98,1012.36,-70.0,-105.0,-35.0
42784,-47.82,20.98,1012.36,17.5,105.0,17.5
42814,-47.82,21.11,1012.36,87.5,-70.0,-105.0
42843,-47.95,21.11,1012.36,122.5,-140.0,-192.5
42873,-48.07,21.11,1012.36,-35.0,52.5,87.5
42903,-48.19,21.11,1012.36,315.0,-280.0,122.5
42933,-48.07,21.11,1012.36,385.0,-437.5,87.5
42962,-47.82,21.11,1012.36,245.0,-420.0,140.0
42991,-47.58,21.35,1012.23,-420.0,52.5,-35.0
43021,-47.7,21.35,1012.23,-297.5,-17.5,-192.5
43050,-47.95,21.23,1012.23,-17.5,-350.0,35.0
43080,-47.82,21.23,1012.11,157.5,-350.0,0.0
43109,-47.82,21.11,1012.23,-262.5,140.0,35.0
43139,-47.82,20.98,1012.11,-35.0,-140.0,105.0
43168,-47.7,20.98,1012.11,-87.5,0.0,17.5
43198,-47.7,20.86,1012.36,-35.0,-140.0,-35.0
43227,-47.82,20.74,1012.23,35.0,-227.5,0.0
43257,-47.82,20.74,1012.36,-87.5,-52.5,70.0
43286,-47.82,20.74,1012.36,210.0,-437.5,-140.0
43316,-47.82,20.62,1012.36,-70.0,-192.5,-70.0
43345,-47.95,20.5,1012.36,52.5,-315.0,35.0
43375,-47.82,20.37,1012.36,0.0,-210.0,105.0
43405,-47.7,20.25,1012.48,17.5,52.5,17.5
43434,-47.82,20.25,1012.36,297.5,-192.5,140.0
43463,-47.82,20.13,1012.36,105.0,-525.0,-140.0
43492,-47.82,20.01,1012.36,157.5,-595.0,-192.5
43521,-47.58,20.01,1012.6,-192.5,175.0,175.0
43550,-47.34,19.89,1012.6,105.0,-70.0,0.0
43580,-47.46,19.76,1012.6,-122.5,210.0,70.0
43609,-47.58,19.64,1012.6,87.5,-105.0,105.0
43639,-47.58,19.52,1012.6,17.5,122.5,17.5
43668,-47.58,19.28,1012.6,367.5,-210.0,17.5
43698,-47.58,19.28,1012.48,350.0,-262.5,-52.5
43727,-47.58,19.28,1012.6,175.0,-35.0,-17.5
43757,-47.7,19.28,1012.6,157.5,-157.5,-52.5
43786,-47.95,19.28,1012.6,332.5,-490.0,-87.5
43816,-47.95,19.15,1012.48,297.5,-262.5,105.0
43845,-47.7,19.15,1012.48,122.5,-315.0,-262.5
43875,-47.82,19.15,1012.36,105.0,-87.5,-52.5
43905,-47.7,19.03,1012.36,420.0,-350.0,-35.0
43934,-47.7,19.15,1012.48,332.5,-192.5,-52.5
43963,-47.82,19.15,1012.48,122.5,-87.5,17.5
43992,-47.82,19.28,1012.48,192.5,-105.0,70.0
44022,-47.58,19.28,1012.48,210.0,-297.5,-140.0
44051,-47.58,19.4,1012.48,262.5,-122.5,0.0
44081,-47.58,19.28,1012.48,105.0,-227.5,-192.5
44110,-47.7,19.4,1012.48,367.5,-262.5,0.0
44140,-47.58,19.64,1012.48,315.0,0.0,-35.0
44169,-47.82,19.64,1012.48,-17.5,-210.0,-227.5
44199,-47.82,19.64,1012.48,0.0,-227.5,17.5
44229,-47.7,19.64,1012.48,402.5,-385.0,-52.5
44259,-47.46,19.64,1012.48,315.0,-70.0,17.5
44288,-47.34,19.64,1012.36,52.5,-17.5,-52.5
44318,-47.46,19.89,1012.36,52.5,0.0,17.5
44348,-47.7,20.01,1012.36,315.0,-437.5,-262.5
44377,-47.82,19.89,1012.36,140.0,-175.0,17.5
44407,-47.82,20.01,1012.36,245.0,-87.5,52.5
44436,-47.7,20.13,1012.36,122.5,-175.0,35.0
44466,-47.7,20.25,1012.36,140.0,-35.0,17.5
44495,-47.95,20.25,1012.23,297.5,-297.5,-35.0
44525,-47.95,20.25,1012.11,105.0,-157.5,17.5
44554,-47.7,20.5,1012.23,297.5,-297.5,-52.5
44584,-47.34,20.5,1012.23,-140.0,35.0,-70.0
44613,-47.46,20.5,1012.36,192.5,-420.0,-157.5
44643,-47.7,20.5,1012.23,52.5,122.5,210.0
44672,-47.7,20.74,1012.23,122.5,-52.5,-17.5
44702,-47.7,20.74,1012.23,297.5,-192.5,-35.0
44731,-47.82,20.62,1012.11,472.5,-437.5,-175.0
44761,-47.82,20.74,1012.11,367.5,-227.5,35.0
44790,-47.82,20.86,1012.11,0.0,35.0,35.0
44820,-47.7,20.98,1012.11,52.5,-70.0,0.0
44850,-47.82,20.98,1012.11,297.5,-385.0,-122.5
44879,-47.95,21.11,1012.11,70.0,-17.5,-17.5
44909,-47.95,21.11,1012.11,105.0,-70.0,35.0
44938,-47.82,21.23,1012.23,175.0,-332.5,-227.5
44967,-47.82,21.23,1012.23,52.5,-52.5,17.5
44996,-47.82,21.23,1012.11,-140.0,35.0,35.0
45026,-47.95,21.23,1012.11,-122.5,227.5,122.5
45055,-48.07,21.35,1012.11,-70.0,52.5,70.0
45085,-48.19,21.35,1012.11,157.5,-245.0,-140.0
45114,-48.43,21.35,1012.11,157.5,-332.5,-105.0
45144,-48.43,21.35,1012.23,262.5,-297.5,0.0
45173,-48.31,21.35,1012.11,210.0,-280.0,-17.5
45203,-48.07,21.47,1012.23,70.0,-140.0,-70.0
45232,-48.31,21.47,1012.23,280.0,-332.5,-140.0
45262,-48.56,21.47,1012.11,87.5,-140.0,0.0
45292,-48.56,21.47,1012.11,245.0,-367.5,-52.5
45322,-48.43,21.47,1012.11,-35.0,17.5,87.5
45352,-48.31,21.72,1012.11,70.0,-245.0,-157.5
45381,-48.31,21.59,1012.11,157.5,-192.5,-140.0
45410,-48.56,21.47,1012.11,175.0,-227.5,105.0
45439,-48.43,21.59,1011.99,280.0,-227.5,-35.0
45469,-48.43,21.59,1012.11,-175.0,70.0,-70.0
45498,-48.43,21.59,1012.11,175.0,-297.5,-35.0
45528,-48.43,21.59,1012.11,-87.5,0.0,70.0
45558,-48.31,21.72,1012.11,262.5,-280.0,-35.0
45588,-48.43,21.59,1012.11,-52.5,17.5,-52.5
45617,-48.56,21.59,1012.11,262.5,-385.0,-87.5
45647,-48.31,21.59,1012.11,140.0,-87.5,52.5
45676,-48.31,21.72,1012.11,35.0,-35.0,-192.5
45706,-48.8,21.59,1012.11,280.0,-262.5,52.5
45735,-48.8,21.72,1012.11,122.5,-140.0,-52.5
45765,-48.68,21.72,1012.11,175.0,-420.0,-157.5
45794,-48.56,21.72,1012.11,157.5,-297.5,-70.0
45823,-48.56,21.72,1012.11,52.5,-70.0,35.0
45853,-48.56,21.59,1011.99,262.5,-175.0,35.0
45882,-48.43,21.72,1011.99,0.0,0.0,-17.5
45912,-48.56,21.72,1011.87,192.5,-262.5,-105.0
45941,-48.8,21.72,1011.75,87.5,-262.5,87.5
45971,-48.8,21.72,1011.62,280.0,-332.5,35.0
46000,-48.56,21.72,1011.62,35.0,-87.5,87.5
46030,-48.43,21.84,1011.62,-70.0,35.0,35.0
46059,-48.56,21.72,1011.75,35.0,-262.5,-70.0
46089,-48.56,21.72,1011.62,-140.0,-70.0,52.5
46118,-48.8,21.72,1011.62,122.5,-315.0,-87.5
46148,-48.8,21.72,1011.5,-17.5,-157.5,157.5
46177,-48.8,21.47,1011.5,-17.5,-192.5,17.5
46207,-48.8,21.47,1011.5,-105.0,-105.0,35.0
46236,-48.8,21.47,1011.38,210.0,-367.5,17.5
46265,-48.8,21.47,1011.38,-70.0,-70.0,87.5
46295,-48.8,21.47,1011.38,17.5,-192.5,-17.5
46324,-48.8,21.35,1011.38,-52.5,-122.5,-17.5
46353,-48.92,21.23,1011.38,315.0,-472.5,0.0
46382,-48.8,21.23,1011.5,-87.5,-87.5,-17.5
46412,-48.8,21.23,1011.5,-122.5,-262.5,-192.5
46441,-48.8,20.98,1011.5,175.0,-367.5,35.0
46471,-48.43,20.98,1011.38,245.0,-385.0,-35.0
46500,-48.31,20.98,1011.5,-157.5,-157.5,-157.5
46530,-48.56,20.86,1011.62,210.0,-262.5,35.0
46559,-48.31,20.74,1011.5,192.5,-122.5,157.5
46589,-48.19,20.74,1011.62,-175.0,-175.0,-140.0
46618,-48.31,20.74,1011.62,52.5,-210.0,0.0
46648,-48.31,20.62,1011.62,175.0,-280.0,17.5
46677,-48.19,20.5,1011.62,192.5,-140.0,70.0
46707,-47.95,20.5,1011.62,70.0,-105.0,0.0
46737,-47.95,20.37,1011.75,35.0,35.0,35.0
46766,-48.07,20.37,1011.75,245.0,-105.0,-52.5
46795,-48.07,20.25,1011.62,367.5,-350.0,-52.5
46824,-48.07,20.25,1011.75,87.5,-87.5,17.5
46854,-47.95,20.37,1011.75,455.0,-315.0,-35.0
46883,-47.95,20.5,1011.75,122.5,-70.0,17.5
46913,-48.07,20.37,1011.75,507.5,-577.5,-140.0
46942,-48.31,20.37,1011.87,262.5,-227.5,17.5
46972,-48.07,20.5,1011.87,507.5,-717.5,-227.5
47001,-47.7,20.5,1011.75,105.0,35.0,52.5
47031,-47.58,20.62,1011.87,52.5,-52.5,-52.5
47060,-47.82,20.62,1011.87,455.0,-280.0,87.5
47090,-47.7,20.74,1011.99,157.5,-105.0,-70.0
47119,-47.58,20.86,1011.87,245.0,-315.0,-140.0
47149,-47.58,20.98,1011.87,87.5,-157.5,-192.5
47178,-47.46,20.98,1011.99,210.0,-122.5,87.5
47208,-47.34,20.98,1011.99,105.0,-157.5,-52.5
47237,-47.09,21.23,1012.11,0.0,-52.5,-157.5
47266,-47.34,21.23,1012.11,35.0,-122.5,-157.5
47295,-47.58,21.23,1012.11,-87.5,35.0,17.5
47324,-47.58,21.23,1012.11,157.5,-175.0,87.5
47354,-47.21,21.47,1012.36,-420.0,507.5,140.0
47383,-47.09,21.47,1012.36,140.0,-262.5,-192.5
47413,-47.58,21.23,1012.36,192.5,-87.5,-157.5
47442,-47.82,21.23,1012.11,280.0,-315.0,-17.5
47472,-47.82,21.35,1012.23,-52.5,-70.0,-17.5
47501,-47.82,21.47,1012.36,87.5,-192.5,-157.5
47531,-47.95,21.35,1012.36,262.5,-122.5,87.5
47560,-48.07,21.23,1012.36,700.0,-560.0,70.0
47590,-47.82,21.35,1012.11,350.0,-245.0,140.0
47619,-47.7,21.59,1012.36,-420.0,227.5,-210.0
47649,-47.82,21.59,1012.36,157.5,-350.0,-140.0
47678,-48.07,21.47,1012.36,-70.0,140.0,105.0
47707,-48.07,21.47,1012.36,315.0,-420.0,-192.5
47736,-48.07,21.59,1012.36,87.5,-245.0,17.5
47765,-47.95,21.59,1012.36,175.0,-87.5,17.5
47795,-47.95,21.72,1012.36,157.5,-227.5,-140.0
47824,-48.07,21.72,1012.36,-35.0,35.0,87.5
47854,-48.19,21.72,1012.48,280.0,-192.5,35.0
47883,-48.19,21.72,1012.36,262.5,-297.5,-35.0
47913,-48.19,21.72,1012.36,105.0,-210.0,-17.5
47942,-48.19,21.72,1012.36,52.5,-70.0,-35.0
47972,-48.07,21.84,1012.48,87.5,-52.5,52.5
48001,-48.07,21.72,1012.36,175.0,-87.5,0.0
48031,-48.07,21.84,1012.36,17.5,-52.5,-87.5
48060,-48.43,21.72,1012.36,192.5,-350.0,-70.0
48090,-48.31,21.72,1012.36,140.0,-87.5,70.0
48120,-48.31,21.84,1012.48,87.5,-175.0,-175.0
48150,-48.43,21.84,1012.48,245.0,-280.0,-35.0
48179,-48.43,21.84,1012.48,210.0,-472.5,-140.0
48208,-48.43,21.96,1012.48,105.0,-315.0,-105.0
48237,-48.31,21.96,1012.48,-35.0,17.5,-35.0
48266,-48.43,21.84,1012.48,315.0,-227.5,0.0
48296,-48.43,21.96,1012.36,140.0,-262.5,17.5
48325,-48.43,21.96,1012.36,35.0,-175.0,-140.0
48355,-48.56,21.96,1012.48,140.0,-175.0,70.0
48384,-48.56,21.96,1012.48,420.0,-122.5,175.0
48414,-48.56,22.08,1012.36,87.5,-87.5,70.0
48443,-48.56,22.08,1012.36,-122.5,-122.5,-122.5
48472,-48.56,22.2,1012.36,210.0,-315.0,-70.0
48501,-48.43,22.2,1012.36,245.0,-227.5,87.5
48531,-48.31,22.2,1012.36,52.5,-105.0,-122.5
48560,-48.43,22.2,1012.36,175.0,-280.0,0.0
48590,-48.43,22.2,1012.36,140.0,-297.5,35.0
48619,-48.19,22.33,1012.36,140.0,-140.0,-105.0
48649,-48.31,22.33,1012.36,140.0,-157.5,-17.5
48678,-48.31,22.45,1012.36,192.5,-350.0,-122.5
48707,-48.31,22.33,1012.36,35.0,-280.0,-157.5
48736,-48.19,22.45,1012.36,175.0,-245.0,52.5
48765,-48.07,22.45,1012.36,157.5,-122.5,0.0
48795,-48.07,22.45,1012.36,17.5,-122.5,-17.5
48824,-48.19,22.45,1012.36,227.5,-280.0,-52.5
48854,-48.19,22.45,1012.36,-87.5,17.5,17.5
48883,-48.07,22.45,1012.36,315.0,-350.0,-35.0
48913,-48.07,22.45,1012.23,-175.0,122.5,17.5
48942,-48.07,22.45,1012.36,122.5,-175.0,-17.5
48972,-48.07,22.45,1012.36,52.5,52.5,35.0
49002,-48.07,22.45,1012.36,140.0,-297.5,-157.5
49032,-48.19,22.45,1012.36,-17.5,-157.5,-52.5
49061,-48.31,22.33,1012.48,192.5,-192.5,70.0
49091,-48.31,22.33,1012.36,560.0,-455.0,-35.0
49120,-48.31,22.2,1012.36,17.5,52.5,157.5
49150,-48.07,22.45,1012.48,-332.5,245.0,35.0
49179,-48.31,22.45,1012.48,332.5,-332.5,-52.5
49208,-48.56,22.33,1012.36,297.5,-367.5,70.0
49238,-48.43,22.45,1012.36,52.5,-70.0,35.0
49267,-48.31,22.45,1012.36,-52.5,17.5,52.5
49297,-48.19,22.45,1012.48,192.5,-122.5,-35.0
49326,-48.43,22.45,1012.36,245.0,-385.0,-245.0
49355,-48.68,22.33,1012.36,52.5,-175.0,70.0
49384,-48.56,22.33,1012.36,70.0,-245.0,17.5
49414,-48.43,22.45,1012.36,140.0,-192.5,-105.0
49443,-48.43,22.45,1012.36,175.0,-367.5,-210.0
49473,-48.56,22.45,1012.36,122.5,-122.5,35.0
49502,-48.56,22.45,1012.36,140.0,-192.5,17.5
49532,-48.56,22.45,1012.36,192.5,-280.0,-87.5
49561,-48.56,22.45,1012.36,105.0,-245.0,-17.5
49591,-48.43,22.45,1012.36,-52.5,17.5,17.5
49621,-48.43,22.45,1012.36,122.5,-297.5,-122.5
49651,-48.56,22.45,1012.36,227.5,-262.5,-52.5
49680,-48.56,22.45,1012.36,210.0,-297.5,-17.5
49709,-48.43,22.45,1012.36,122.5,-175.0,17.5
49739,-48.31,22.57,1012.36,157.5,-122.5,0.0
49768,-48.19,22.57,1012.36,87.5,-87.5,0.0
49798,-48.31,22.57,1012.36,332.5,-350.0,-157.5
49827,-48.43,22.69,1012.36,332.5,-210.0,35.0
49857,-48.31,22.69,1012.36,87.5,-420.0,-192.5
49886,-48.31,22.81,1012.48,52.5,-245.0,-105.0
49916,-48.19,22.69,1012.48,105.0,-87.5,17.5
49945,-48.31,22.69,1012.48,350.0,-367.5,-52.5
49975,-48.31,22.69,1012.36,105.0,-280.0,-52.5
50004,-48.19,22.81,1012.48,-52.5,-105.0,-35.0
50034,-48.31,22.81,1012.36,105.0,-245.0,35.0
50063,-48.19,22.81,1012.48,210.0,-420.0,-35.0
50093,-48.07,22.81,1012.48,-17.5,-17.5,70.0
50123,-47.95,22.94,1012.48,35.0,-175.0,17.5
50152,-47.95,22.94,1012.6,-17.5,-122.5,-17.5
50181,-48.19,23.06,1012.6,192.5,-437.5,-87.5
50210,-48.31,22.94,1012.6,332.5,-647.5,35.0
50240,-47.82,23.06,1012.6,-87.5,-87.5,192.5
50269,-47.46,22.94,1012.6,-210.0,227.5,-52.5
50299,-47.58,22.81,1012.48,-35.0,-52.5,52.5
50328,-47.58,22.81,1012.48,-210.0,122.5,157.5
50358,-47.46,22.81,1012.48,17.5,-227.5,-122.5
50387,-47.58,22.57,1012.48,35.0,-52.5,175.0
50417,-47.58,22.57,1012.48,122.5,-280.0,0.0
50446,-47.58,22.45,1012.48,192.5,-280.0,17.5
50476,-47.58,22.45,1012.36,17.5,-87.5,52.5
50506,-47.58,22.45,1012.36,-17.5,-105.0,-52.5
50536,-47.58,22.45,1012.48,-175.0,-17.5,0.0
50565,-47.58,22.33,1012.48,105.0,-122.5,0.0
50595,-47.58,22.2,1012.48,35.0,-105.0,17.5
50625,-47.7,22.2,1012.48,-105.0,87.5,17.5
50655,-47.7,22.08,1012.48,140.0,-437.5,-140.0
50684,-47.7,21.96,1012.48,-35.0,-157.5,-17.5
50713,-47.58,21.84,1012.48,35.0,-122.5,-52.5
50743,-47.58,21.59,1012.48,192.5,-87.5,-17.5
50772,-47.58,21.47,1012.48,262.5,35.0,87.5
50802,-47.7,21.47,1012.48,70.0,-87.5,-105.0
50831,-47.82,21.47,1012.6,87.5,-52.5,0.0
50861,-48.07,21.47,1012.6,367.5,-140.0,35.0
50890,-48.19,21.47,1012.6,437.5,-420.0,-35.0
50920,-48.07,21.47,1012.48,245.0,-315.0,-35.0
50949,-47.82,21.47,1012.6,140.0,-122.5,-35.0
50979,-47.95,21.59,1012.6,402.5,-350.0,-192.5
51008,-48.19,21.59,1012.6,315.0,-315.0,0.0
51038,-48.07,21.59,1012.48,-70.0,52.5,-17.5
51067,-48.07,21.72,1012.6,210.0,-210.0,-87.5
51097,-48.07,21.72,1012.6,367.5,-280.0,17.5
51126,-48.07,21.72,1012.48,-52.5,52.5,-70.0
51156,-48.07,21.84,1012.48,-52.5,105.0,-87.5
51186,-48.31,21.72,1012.6,227.5,-122.5,-105.0
51215,-48.31,21.84,1012.6,332.5,-350.0,-52.5
51244,-48.31,21.84,1012.6,280.0,-262.5,17.5
51273,-48.07,21.96,1012.6,-192.5,175.0,-52.5
51303,-48.19,21.96,1012.72,420.0,-367.5,-192.5
51332,-48.56,21.96,1012.6,385.0,-420.0,-140.0
51361,-48.56,21.96,1012.6,367.5,-385.0,17.5
51390,-48.19,22.2,1012.6,-122.5,-105.0,-227.5
51419,-48.19,22.2,1012.72,0.0,-192.5,-210.0
51448,-48.43,22.2,1012.6,227.5,-315.0,-52.5
51478,-48.43,22.2,1012.36,262.5,-332.5,-140.0
51507,-48.43,22.2,1012.36,52.5,17.5,52.5
51537,-48.31,22.2,1012.23,227.5,-262.5,0.0
51566,-48.43,22.45,1012.11,122.5,-17.5,-35.0
51596,-48.68,22.45,1012.11,297.5,-297.5,-35.0
51625,-48.8,22.45,1011.99,0.0,-157.5,0.0
51655,-48.56,22.57,1011.99,0.0,17.5,175.0
51685,-48.07,22.69,1012.11,227.5,-227.5,-70.0
51714,-48.07,22.69,1011.99,-35.0,70.0,-70.0
51744,-48.43,22.69,1011.87,-17.5,-227.5,-87.5
51773,-48.56,22.57,1011.87,-245.0,105.0,35.0
51803,-48.43,22.57,1011.87,245.0,-385.0,-245.0
51832,-48.31,22.57,1011.99,70.0,-52.5,17.5
51862,-48.19,22.69,1012.11,-105.0,140.0,-17.5
51891,-48.43,22.69,1012.11,70.0,-105.0,-122.5
51921,-48.8,22.45,1011.99,402.5,-560.0,-105.0
51950,-48.68,22.45,1012.11,245.0,-175.0,157.5
51980,-48.43,22.57,1012.11,192.5,-315.0,-87.5
52009,-48.56,22.57,1012.11,122.5,-175.0,-35.0
52039,-48.68,22.57,1012.11,280.0,-367.5,-17.5
52068,-48.8,22.57,1012.11,122.5,-210.0,70.0
52098,-48.68,22.57,1012.11,437.5,-560.0,-70.0
52127,-48.56,22.69,1012.11,17.5,35.0,52.5
52157,-48.43,22.81,1012.23,140.0,-175.0,-105.0
52186,-48.43,22.81,1012.36,-87.5,-122.5,-157.5
52215,-48.8,22.81,1012.36,280.0,-367.5,35.0
52245,-49.04,22.81,1012.36,227.5,-350.0,157.5
52274,-48.8,22.81,1012.36,367.5,-542.5,35.0
52304,-48.31,22.94,1012.36,210.0,-280.0,17.5
52333,-48.07,23.06,1012.36,0.0,17.5,-70.0
52363,-47.95,23.06,1012.48,17.5,17.5,-52.5
52392,-48.07,23.06,1012.36,175.0,-262.5,-157.5
52422,-48.07,22.94,1012.36,-35.0,-105.0,-175.0
52451,-48.07,23.06,1012.36,157.5,-437.5,-245.0
52481,-48.07,23.18,1012.36,192.5,-402.5,-140.0
52510,-48.07,23.18,1012.36,122.5,-280.0,-70.0
52540,-47.82,23.18,1012.36,70.0,-175.0,-105.0
52569,-47.82,23.18,1012.36,87.5,-245.0,-70.0
52599,-47.82,23.18,1012.36,245.0,-315.0,-35.0
52628,-47.82,23.18,1012.36,17.5,-87.5,-35.0
52658,-47.7,23.18,1012.48,157.5,-157.5,87.5
52687,-47.7,23.18,1012.48,87.5,-175.0,-87.5
52716,-47.82,23.18,1012.48,175.0,-210.0,0.0
52746,-47.7,23.18,1012.6,332.5,-332.5,105.0
52775,-47.46,23.3,1012.6,227.5,-227.5,52.5
52805,-47.34,23.3,1012.48,70.0,-315.0,-157.5
52834,-47.34,23.42,1012.6,-87.5,70.0,17.5
52864,-47.34,23.42,1012.6,227.5,-367.5,-70.0
52893,-47.34,23.42,1012.6,0.0,-122.5,-35.0
52923,-47.34,23.42,1012.6,210.0,-280.0,-52.5
52952,-47.21,23.42,1012.72,472.5,-280.0,122.5
52982,-46.97,23.55,1012.72,192.5,-70.0,52.5
53011,-46.97,23.55,1012.6,-262.5,0.0,-332.5
53041,-47.21,23.55,1012.6,-140.0,-87.5,0.0
53070,-47.09,23.42,1012.6,437.5,-472.5,-17.5
53100,-46.85,23.42,1012.72,-17.5,122.5,35.0
53129,-46.85,23.67,1012.72,-87.5,70.0,-70.0
53159,-47.09,23.55,1012.6,70.0,-210.0,-70.0
53188,-47.09,23.55,1012.72,70.0,-122.5,105.0
53218,-46.85,23.55,1012.72,210.0,-245.0,-17.5
53247,-46.85,23.55,1012.6,-175.0,17.5,-17.5
53276,-46.97,23.55,1012.6,87.5,-210.0,17.5
53306,-47.09,23.55,1012.6,105.0,-192.5,-17.5
53335,-47.09,23.55,1012.6,70.0,-192.5,0.0
53365,-47.21,23.42,1012.6,175.0,-385.0,-35.0
53394,-47.09,23.3,1012.6,245.0,-210.0,245.0
53424,-46.73,23.42,1012.72,52.5,-105.0,-52.5
53453,-46.97,23.42,1012.6,-35.0,-17.5,-35.0
53483,-47.34,23.3,1012.48,52.5,-315.0,105.0
53512,-47.34,23.18,1012.48,70.0,-227.5,105.0
53542,-47.09,23.3,1012.48,-87.5,-70.0,-17.5
53571,-47.09,23.3,1012.48,105.0,-140.0,35.0
53601,-47.34,23.06,1012.36,367.5,-665.0,-17.5
53630,-47.09,23.06,1012.23,-122.5,-175.0,192.5
53660,-46.6,23.18,1012.23,-455.0,367.5,-87.5
53689,-46.85,22.94,1012.23,52.5,-245.0,-140.0
53719,-47.21,22.81,1012.11,210.0,-472.5,70.0
53748,-47.21,22.81,1012.11,122.5,-297.5,17.5
53778,-47.09,22.81,1012.36,-70.0,-122.5,35.0
53808,-46.85,22.81,1012.36,-17.5,-192.5,-87.5
53837,-46.97,22.69,1012.36,105.0,-262.5,35.0
53867,-46.97,22.57,1012.36,-52.5,-70.0,70.0
53896,-46.85,22.33,1012.36,105.0,-367.5,-157.5
53925,-46.73,22.2,1012.36,17.5,140.0,245.0
53954,-46.6,22.2,1012.36,-70.0,17.5,-52.5
53984,-46.85,22.2,1012.36,-140.0,157.5,122.5
54013,-46.97,21.96,1012.36,122.5,-87.5,70.0
54043,-46.85,21.84,1012.23,17.5,-227.5,-70.0
54072,-46.85,21.72,1012.23,105.0,-192.5,-17.5
54102,-46.85,21.72,1012.36,-35.0,105.0,-70.0
54131,-47.09,21.59,1012.23,192.5,-245.0,-52.5
54161,-47.09,21.35,1012.11,227.5,-280.0,-70.0
54190,-47.09,21.35,1012.11,17.5,-122.5,-105.0
54220,-47.21,21.23,1012.11,210.0,-122.5,17.5
54249,-47.34,21.23,1011.99,227.5,-157.5,52.5
54279,-47.46,21.11,1011.87,262.5,-385.0,-87.5
54308,-47.46,21.11,1011.87,227.5,-175.0,-70.0
54337,-47.46,20.98,1011.99,367.5,-297.5,-105.0
54366,-47.34,20.98,1011.87,122.5,-35.0,0.0
54395,-47.21,20.98,1011.87,35.0,-17.5,-105.0
54425,-47.34,20.98,1011.87,210.0,-122.5,-17.5
54454,-47.46,20.98,1011.87,455.0,-350.0,-122.5
54483,-47.58,20.98,1011.87,140.0,-35.0,17.5
54512,-47.7,20.98,1011.87,385.0,-402.5,-157.5
54541,-47.7,21.23,1011.99,122.5,192.5,157.5
54570,-47.46,21.23,1012.11,157.5,-140.0,-192.5
54600,-47.46,21.23,1011.87,140.0,-157.5,-140.0
54629,-47.46,21.23,1011.87,0.0,122.5,-122.5
54659,-47.58,21.35,1012.11,35.0,17.5,-105.0
54688,-48.19,21.35,1012.11,455.0,-385.0,-70.0
54718,-48.43,21.23,1011.87,227.5,-192.5,17.5
54747,-48.07,21.35,1011.99,297.5,-227.5,17.5
54777,-47.82,21.47,1012.11,262.5,-175.0,-87.5
54806,-48.07,21.47,1012.11,122.5,-140.0,-122.5
54836,-48.31,21.47,1012.11,157.5,-140.0,52.5
54865,-48.31,21.59,1012.11,332.5,-245.0,70.0
54894,-48.07,21.72,1012.11,122.5,-175.0,-70.0
54923,-48.07,21.84,1012.11,-105.0,52.5,-70.0
54952,-48.19,21.84,1012.11,52.5,70.0,17.5
54982,-48.31,21.96,1012.11,437.5,-315.0,0.0
55011,-48.31,21.96,1011.99,-35.0,-17.5,-70.0
55041,-48.56,22.08,1011.99,-122.5,157.5,-35.0
55070,-48.56,22.08,1012.11,210.0,-192.5,-17.5
55100,-48.56,22.2,1012.11,367.5,-315.0,0.0
55129,-48.68,22.2,1012.11,140.0,-175.0,-192.5
55159,-49.04,22.2,1011.99,297.5,-402.5,0.0
55188,-49.04,22.2,1011.87,-52.5,-210.0,122.5
55218,-48.8,22.33,1011.99,297.5,-577.5,-122.5
55247,-48.68,22.33,1011.99,-17.5,-175.0,-17.5
55277,-48.56,22.33,1011.87,105.0,-105.0,17.5
55306,-48.43,22.45,1011.87,70.0,0.0,-35.0
55336,-48.68,22.45,1011.87,262.5,-332.5,-52.5
55365,-48.92,22.57,1011.87,297.5,-455.0,-105.0
55395,-48.8,22.57,1011.87,52.5,17.5,70.0
55425,-48.56,22.69,1011.99,122.5,-157.5,0.0
55454,-48.56,22.69,1011.99,472.5,-455.0,-52.5
55483,-48.56,22.81,1011.99,105.0,-140.0,-175.0
55512,-48.68,22.94,1011.99,122.5,-350.0,-175.0
55541,-48.8,22.94,1012.11,157.5,-262.5,0.0
55570,-48.56,23.06,1012.11,105.0,-262.5,17.5
55600,-48.31,23.06,1012.11,-245.0,210.0,52.5
55629,-48.43,23.18,1012.11,35.0,-192.5,-87.5
55659,-48.56,23.18,1012.11,420.0,-455.0,0.0
55688,-48.43,23.18,1012.11,35.0,-175.0,-210.0
55718,-48.31,23.18,1012.11,-577.5,367.5,17.5
55747,-48.31,23.18,1012.23,-227.5,210.0,70.0
55777,-48.43,23.18,1012.36,350.0,-455.0,-210.0
55806,-48.56,23.06,1012.36,262.5,-245.0,140.0
55836,-48.56,23.06,1012.36,70.0,-175.0,-87.5
55865,-48.56,23.06,1012.36,227.5,-402.5,-140.0
55895,-48.56,23.06,1012.48,175.0,-315.0,-70.0
55924,-48.56,23.18,1012.6,332.5,-245.0,105.0
55953,-48.43,23.18,1012.48,140.0,-315.0,-192.5
55982,-48.43,23.18,1012.48,70.0,-245.0,-17.5
56011,-48.31,23.18,1012.6,262.5,-297.5,-17.5
56040,-48.43,23.06,1012.48,140.0,-227.5,-122.5
56069,-48.31,23.18,1012.48,-122.5,175.0,175.0
56099,-48.19,23.18,1012.6,87.5,-87.5,-87.5
56128,-48.31,23.18,1012.6,52.5,-17.5,0.0
56158,-48.56,23.18,1012.6,227.5,-210.0,52.5
56187,-48.43,23.18,1012.6,245.0,-297.5,-17.5
56217,-48.31,23.18,1012.72,35.0,-35.0,-35.0
56246,-48.31,23.3,1012.72,157.5,-262.5,-35.0
56276,-48.31,23.3,1012.84,105.0,-105.0,17.5
56305,-48.43,23.18,1012.72,245.0,-402.5,-87.5
56335,-48.43,23.18,1012.72,52.5,-105.0,52.5
56364,-48.31,23.18,1012.72,245.0,-350.0,-52.5
56394,-48.31,23.3,1012.84,52.5,-70.0,0.0
56424,-48.19,23.3,1012.84,105.0,-192.5,-35.0
56454,-48.31,23.3,1012.84,87.5,-192.5,-35.0
56484,-48.31,23.3,1012.84,175.0,-140.0,140.0
56513,-48.19,23.3,1012.84,262.5,-385.0,-105.0
56542,-48.19,23.3,1012.84,52.5,-175.0,-140.0
56571,-48.19,23.42,1012.84,70.0,-105.0,122.5
56601,-47.95,23.42,1012.84,-17.5,-52.5,-17.5
56630,-48.07,23.42,1012.84,122.5,-227.5,-122.5
56659,-48.19,23.3,1012.84,315.0,-315.0,-17.5
56688,-48.19,23.42,1012.84,35.0,-52.5,35.0
56718,-48.07,23.42,1012.84,262.5,-227.5,0.0
56747,-47.95,23.42,1012.84,-192.5,-70.0,-105.0
56777,-48.07,23.42,1012.84,245.0,-402.5,-157.5
56806,-48.07,23.42,1012.72,35.0,70.0,140.0
56836,-48.07,23.3,1012.84,262.5,-210.0,-17.5
56865,-48.07,23.42,1012.84,175.0,-192.5,-35.0
56895,-48.19,23.42,1012.72,87.5,-210.0,-122.5
56924,-48.31,23.55,1012.84,262.5,-332.5,0.0
56954,-48.07,23.42,1012.84,227.5,-332.5,-140.0
56983,-48.07,23.55,1012.72,52.5,-262.5,-35.0
57012,-47.95,23.67,1012.84,297.5,-472.5,-192.5
57041,-48.07,23.67,1012.84,245.0,-367.5,-70.0
57070,-48.07,23.67,1012.84,-17.5,-210.0,-17.5
57099,-47.95,23.67,1012.72,17.5,-192.5,52.5
57128,-47.82,23.55,1012.84,-35.0,17.5,122.5
57158,-47.7,23.67,1012.72,17.5,-175.0,-17.5
57187,-47.7,23.67,1012.6,0.0,-210.0,-17.5
57217,-47.82,23.67,1012.6,17.5,-210.0,-87.5
57246,-47.82,23.67,1012.6,17.5,-227.5,35.0
57276,-47.82,23.55,1012.48,0.0,-245.0,35.0
57305,-47.58,23.55,1012.48,17.5,-210.0,105.0
57335,-47.34,23.42,1012.48,17.5,-192.5,-87.5
57364,-47.34,23.42,1012.48,52.5,-175.0,-52.5
57394,-47.34,23.42,1012.48,157.5,-367.5,-35.0
57423,-46.97,23.42,1012.36,0.0,-192.5,-297.5
57453,-47.09,23.3,1012.48,-280.0,70.0,-542.5
57482,-47.58,23.18,1012.36,70.0,-105.0,52.5
57512,-47.58,23.06,1012.36,70.0,-420.0,-140.0
57541,-47.34,23.06,1012.36,-122.5,-192.5,-227.5
57570,-47.21,22.94,1012.48,0.0,-175.0,-17.5
57600,-47.21,22.69,1012.48,-35.0,-52.5,-35.0
57629,-47.21,22.57,1012.36,-175.0,122.5,35.0
57659,-47.34,22.57,1012.36,-35.0,-175.0,35.0
57688,-47.34,22.45,1012.36,87.5,-105.0,122.5
57718,-47.21,22.33,1012.36,175.0,-210.0,-140.0
57747,-47.21,22.2,1012.36,-210.0,35.0,-105.0
57777,-47.46,22.08,1012.36,245.0,-315.0,-70.0
57806,-47.46,21.96,1012.36,157.5,-210.0,192.5
57836,-47.46,21.96,1012.36,52.5,-367.5,-122.5
57865,-47.46,21.84,1012.36,122.5,-367.5,-35.0
57895,-47.34,21.72,1012.36,35.0,-122.5,17.5
57924,-47.09,21.47,1012.36,140.0,-227.5,-70.0
57954,-47.09,21.47,1012.36,262.5,-245.0,-17.5
57983,-47.09,21.23,1012.36,140.0,17.5,87.5
58013,-47.09,21.23,1012.36,350.0,-227.5,87.5
58042,-47.09,21.35,1012.48,70.0,105.0,17.5
58071,-47.34,21.23,1012.48,297.5,-122.5,140.0
58100,-47.34,21.23,1012.36,490.0,-280.0,140.0
58129,-47.09,21.35,1012.48,70.0,35.0,-70.0
58159,-47.34,21.23,1012.36,245.0,-192.5,-35.0
58188,-47.34,21.23,1012.36,157.5,-35.0,52.5
58218,-47.58,21.23,1012.36,612.5,-525.0,-70.0
58247,-47.58,21.35,1012.23,157.5,-332.5,17.5
58277,-47.46,21.35,1012.23,122.5,-140.0,-35.0
58306,-47.34,21.47,1012.36,175.0,-245.0,-35.0
58336,-47.21,21.47,1012.23,105.0,-122.5,-35.0
58365,-47.34,21.47,1012.11,-17.5,105.0,-52.5
58395,-47.34,21.47,1012.11,-210.0,227.5,-17.5
58424,-47.58,21.59,1012.11,140.0,-157.5,-140.0
58454,-47.82,21.47,1012.11,490.0,-490.0,-105.0
58483,-47.82,21.47,1012.11,17.5,-52.5,52.5
58513,-47.58,21.59,1012.11,105.0,-70.0,35.0
58543,-47.46,21.72,1012.11,105.0,-52.5,-35.0
58573,-47.58,21.59,1011.99,192.5,-157.5,-87.5
58602,-47.82,21.72,1011.99,140.0,-105.0,0.0
58631,-47.95,21.72,1011.87,157.5,-262.5,-157.5
58660,-47.95,21.59,1011.87,297.5,-332.5,-52.5
58689,-47.82,21.72,1011.87,210.0,-227.5,-35.0
58719,-47.82,21.72,1011.87,140.0,-52.5,-17.5
58748,-47.95,21.84,1011.87,140.0,-140.0,0.0
58778,-48.07,21.72,1011.87,175.0,-210.0,-17.5
58807,-47.95,21.84,1011.87,210.0,-280.0,-35.0
58837,-47.82,21.96,1011.87,87.5,52.5,70.0
58867,-47.82,21.96,1011.87,140.0,-157.5,-175.0
58897,-48.07,21.96,1011.87,192.5,-262.5,-17.5
58926,-48.07,22.08,1011.75,70.0,-175.0,-87.5
58956,-48.07,22.2,1011.75,175.0,-175.0,17.5
58985,-48.07,22.2,1011.62,210.0,-157.5,-35.0
59015,-48.07,22.2,1011.62,210.0,-262.5,-70.0
59044,-48.07,22.33,1011.5,140.0,-227.5,-105.0
59074,-48.07,22.33,1011.62,87.5,-210.0,-35.0
59103,-48.07,22.33,1011.62,175.0,-52.5,140.0
59132,-47.95,22.33,1011.5,-70.0,70.0,-105.0
59162,-48.07,22.45,1011.62,245.0,-262.5,-52.5
59191,-48.19,22.45,1011.62,-105.0,52.5,-70.0
59221,-48.31,22.45,1011.62,227.5,-210.0,-17.5
59250,-48.31,22.45,1011.62,140.0,-105.0,122.5
59280,-48.19,22.57,1011.62,262.5,-315.0,-157.5
59309,-48.31,22.57,1011.62,105.0,-157.5,0.0
59339,-48.31,22.57,1011.62,70.0,-175.0,-35.0
59368,-48.43,22.69,1011.75,280.0,-262.5,-70.0
59398,-48.43,22.69,1011.62,192.5,-420.0,-87.5
59427,-48.56,22.69,1011.62,297.5,-367.5,105.0
59457,-48.19,22.69,1011.62,35.0,-175.0,0.0
59487,-48.07,22.81,1011.75,17.5,17.5,-35.0
59517,-48.19,22.94,1011.62,420.0,-332.5,-17.5
59546,-48.31,22.94,1011.62,70.0,-297.5,-140.0
59576,-48.31,22.94,1011.62,332.5,-315.0,52.5
59605,-48.19,22.94,1011.62,0.0,0.0,0.0
59635,-48.07,23.06,1011.75,245.0,-367.5,-157.5
59664,-48.19,23.06,1011.62,52.5,-157.5,-52.5
59693,-48.19,23.06,1011.62,157.5,-210.0,-35.0
59722,-48.07,23.18,1011.62,87.5,-105.0,35.0
59751,-47.95,23.18,1011.5,87.5,-157.5,-140.0
59781,-48.19,23.18,1011.62,105.0,-227.5,-105.0
59810,-48.31,23.18,1011.62,280.0,-367.5,-70.0
59840,-48.07,23.3,1011.62,122.5,-262.5,-87.5
59869,-47.82,23.42,1011.62,17.5,-192.5,-227.5
59899,-47.95,23.3,1011.62,-17.5,-175.0,-35.0
59928,-47.82,23.3,1011.75,105.0,-192.5,-17.5
59958,-47.58,23.42,1011.87,227.5,-105.0,-87.5
59987,-47.7,23.42,1011.75,-87.5,-52.5,-192.5
60017,-48.07,23.42,1011.75,122.5,-210.0,-87.5
60046,-48.31,23.42,1011.87,192.5,-192.5,70.0
60076,-48.07,23.42,1011.87,367.5,-332.5,87.5
60105,-47.7,23.42,1011.75,17.5,-52.5,17.5
60135,-47.58,23.42,1011.75,52.5,-17.5,-87.5
60165,-47.82,23.42,1011.75,122.5,-210.0,-35.0
60194,-48.07,23.42,1011.75,245.0,-402.5,-35.0
60223,-48.07,23.42,1011.62,157.5,-227.5,35.0
60252,-47.82,23.55,1011.62,70.0,-210.0,0.0
60282,-47.58,23.55,1011.75,105.0,-105.0,17.5
60311,-47.7,23.55,1011.75,315.0,-280.0,-52.5
60341,-47.82,23.67,1011.75,122.5,-157.5,35.0
60370,-47.82,23.67,1011.62,157.5,-245.0,-52.5
60400,-47.7,23.67,1011.75,140.0,-122.5,70.0
60429,-47.58,23.67,1011.87,140.0,-227.5,-87.5
60459,-47.7,23.67,1011.75,70.0,-70.0,0.0
60489,-47.7,23.67,1011.62,227.5,-332.5,52.5
60519,-47.58,23.67,1011.62,-87.5,17.5,52.5
60549,-47.46,23.79,1011.62,140.0,-210.0,-140.0
60579,-47.46,23.79,1011.5,-122.5,-122.5,17.5
60608,-47.46,23.67,1011.62,0.0,-157.5,-35.0
60638,-47.58,23.67,1011.62,210.0,-332.5,-17.5
60667,-47.58,23.79,1011.62,52.5,-105.0,87.5
60697,-47.58,23.91,1011.62,35.0,-140.0,17.5
60727,-47.58,23.91,1011.62,-175.0,-175.0,-140.0
60756,-47.7,23.79,1011.62,-52.5,-385.0,-140.0
60785,-47.7,23.67,1011.75,87.5,-245.0,122.5
60814,-47.46,23.55,1011.75,17.5,-105.0,-35.0
60844,-47.46,23.42,1011.62,105.0,-297.5,-70.0
60873,-47.58,23.42,1011.75,-105.0,0.0,70.0
60903,-47.7,23.55,1011.75,105.0,-420.0,-122.5
60932,-47.7,23.42,1011.75,87.5,-192.5,70.0
60962,-47.58,23.42,1011.87,35.0,-332.5,-52.5
60991,-47.34,23.42,1011.87,17.5,-245.0,17.5
61021,-47.21,23.3,1011.87,-87.5,-210.0,-157.5
61050,-47.34,23.18,1011.87,70.0,-332.5,-87.5
61080,-47.34,23.18,1011.99,-192.5,-87.5,35.0
61109,-47.21,22.94,1011.99,35.0,-385.0,-52.5
61139,-47.09,22.94,1012.11,-70.0,0.0,35.0
61169,-47.09,22.81,1012.11,210.0,-350.0,-17.5
61199,-47.09,22.69,1012.11,-87.5,-87.5,140.0
61228,-46.85,22.69,1012.23,122.5,-192.5,-35.0
61257,-46.85,22.57,1012.23,52.5,-210.0,-52.5
61287,-46.85,22.45,1012.36,87.5,-262.5,-70.0
61316,-46.85,22.33,1012.36,70.0,-210.0,0.0
61346,-46.85,22.2,1012.36,192.5,-315.0,52.5
61375,-46.6,22.2,1012.36,140.0,-175.0,17.5
61405,-46.48,22.2,1012.36,-245.0,0.0,-122.5
61434,-46.85,22.08,1012.48,157.5,-262.5,-35.0
61464,-46.85,21.96,1012.36,367.5,-490.0,-17.5
61493,-46.6,21.96,1012.48,-70.0,-175.0,-105.0
61523,-46.36,21.84,1012.6,157.5,-297.5,-70.0
61552,-46.24,21.72,1012.72,192.5,-105.0,52.5
61582,-46.36,21.59,1012.6,140.0,-210.0,-87.5
61611,-46.48,21.47,1012.6,140.0,-192.5,-70.0
61641,-46.36,21.47,1012.6,437.5,-350.0,17.5
61670,-46.12,21.47,1012.72,227.5,-52.5,0.0
61700,-46.12,21.47,1012.6,245.0,-192.5,-140.0
61729,-46.36,21.47,1012.6,315.0,-192.5,35.0
61758,-46.24,21.47,1012.6,525.0,-472.5,-87.5
61787,-46.12,21.47,1012.6,0.0,0.0,17.5
61817,-45.87,21.59,1012.6,210.0,-105.0,-17.5
61846,-45.87,21.72,1012.6,175.0,-17.5,-17.5
61875,-45.99,21.59,1012.6,350.0,-262.5,-192.5
61904,-46.12,21.59,1012.6,122.5,-87.5,35.0
61933,-45.87,21.72,1012.6,280.0,-262.5,35.0
61963,-45.63,21.84,1012.72,52.5,210.0,17.5
61992,-45.63,21.96,1012.72,122.5,-70.0,-52.5
62022,-45.87,21.96,1012.72,192.5,-122.5,-87.5
62051,-45.99,22.08,1012.84,280.0,-227.5,-70.0
62081,-45.99,22.2,1012.72,210.0,-262.5,-105.0
62110,-45.99,22.2,1012.84,157.5,0.0,-52.5
62140,-45.87,22.33,1012.84,315.0,-245.0,-52.5
62169,-45.87,22.33,1012.72,-70.0,-140.0,-192.5
62199,-46.12,22.45,1012.72,157.5,-280.0,-105.0
62228,-46.12,22.45,1012.72,315.0,-280.0,-105.0
62258,-46.12,22.45,1012.6,210.0,-157.5,-70.0
62287,-46.12,22.45,1012.72,315.0,-385.0,52.5
62316,-45.87,22.69,1012.84,0.0,70.0,-105.0
62346,-46.12,22.81,1012.84,192.5,-262.5,-210.0
62375,-46.24,22.81,1012.84,280.0,-140.0,35.0
62405,-46.12,22.94,1012.72,105.0,-227.5,-140.0
62434,-46.12,22.94,1012.72,122.5,-157.5,-122.5
62463,-45.87,23.06,1012.84,17.5,-105.0,-140.0
62492,-46.12,23.06,1012.84,105.0,-175.0,-70.0
62522,-46.24,23.06,1012.84,105.0,-122.5,-17.5
62551,-46.24,23.18,1012.72,140.0,-367.5,-105.0
62581,-45.99,23.18,1012.72,-52.5,17.5,-70.0
62610,-46.12,23.3,1012.84,17.5,-52.5,-122.5
62640,-46.24,23.18,1012.72,-70.0,-70.0,-52.5
62669,-46.24,23.18,1012.72,17.5,-122.5,-70.0
62699,-46.24,23.18,1012.84,-17.5,17.5,52.5
62729,-46.12,23.18,1012.84,17.5,-52.5,-35.0
62759,-46.24,23.18,1012.72,87.5,-52.5,0.0
62789,-46.36,23.06,1012.6,-140.0,70.0,52.5
62819,-46.48,23.06,1012.72,105.0,17.5,35.0
62849,-46.73,22.94,1012.72,367.5,-245.0,0.0
62878,-46.85,22.94,1012.6,105.0,-332.5,0.0
62908,-46.73,23.06,1012.6,17.5,-140.0,0.0
62937,-46.85,22.94,1012.72,0.0,-87.5,-35.0
62967,-47.09,22.94,1012.72,192.5,-122.5,35.0
62996,-47.09,22.81,1012.6,297.5,-262.5,87.5
63026,-46.97,22.94,1012.6,-140.0,70.0,87.5
63055,-46.97,22.94,1012.84,-122.5,105.0,-17.5
63085,-47.21,22.81,1012.72,402.5,-280.0,17.5
63114,-47.34,22.81,1012.6,140.0,-192.5,0.0
63144,-47.09,22.81,1012.6,52.5,-245.0,-70.0
63173,-47.09,22.81,1012.84,140.0,-175.0,-87.5
63203,-47.21,22.81,1012.84,210.0,-192.5,0.0
63232,-47.34,22.81,1012.84,122.5,-280.0,-140.0
63262,-47.46,22.69,1012.72,35.0,-227.5,-35.0
63291,-47.34,22.69,1012.72,140.0,-280.0,-35.0
63321,-47.21,22.69,1012.84,52.5,35.0,52.5
63351,-47.34,22.81,1012.84,35.0,-17.5,-35.0
63381,-47.58,22.69,1012.84,210.0,-350.0,-35.0
63410,-47.58,22.69,1012.84,420.0,-472.5,-17.5
63439,-47.46,22.69,1012.84,-17.5,-17.5,-17.5
63469,-47.34,22.81,1013.09,17.5,-140.0,0.0
63498,-47.21,22.81,1012.97,122.5,-35.0,-52.5
63528,-47.34,22.69,1012.84,-52.5,-87.5,-35.0
63557,-47.58,22.69,1012.97,87.5,-122.5,17.5
63587,-47.7,22.69,1012.97,140.0,-192.5,-17.5
63616,-47.7,22.69,1012.97,455.0,-420.0,-17.5
63646,-47.58,22.69,1012.84,-17.5,-157.5,-140.0
63675,-47.58,22.69,1012.84,105.0,-350.0,-140.0
63705,-47.7,22.69,1012.84,122.5,-227.5,-35.0
63734,-47.58,22.69,1012.84,175.0,-210.0,35.0
63764,-47.58,22.69,1012.84,-17.5,-70.0,-52.5
63793,-47.58,22.81,1012.97,175.0,-192.5,70.0
63823,-47.58,22.81,1012.84,87.5,-70.0,17.5
63853,-47.82,22.81,1012.84,245.0,-455.0,-70.0
63883,-47.82,22.69,1012.84,87.5,-175.0,87.5
63913,-47.58,22.81,1012.84,-122.5,-140.0,-52.5
63943,-47.58,22.81,1012.84,157.5,-210.0,17.5
63972,-47.58,22.81,1012.72,-140.0,-35.0,17.5
64001,-47.58,22.81,1012.72,122.5,-280.0,17.5
64031,-47.7,22.69,1012.6,-17.5,-192.5,-52.5
64060,-47.58,22.57,1012.6,-52.5,-140.0,-17.5
64090,-47.58,22.57,1012.6,105.0,-262.5,17.5
64119,-47.34,22.57,1012.48,-52.5,0.0,35.0
64149,-47.46,22.45,1012.48,-35.0,-175.0,0.0
64178,-47.46,22.33,1012.48,122.5,-315.0,17.5
64208,-47.46,22.33,1012.36,52.5,-245.0,-105.0
64237,-47.46,22.33,1012.36,-122.5,-35.0,52.5
64267,-47.58,22.2,1012.36,0.0,-227.5,17.5
64296,-47.46,22.2,1012.36,0.0,-245.0,0.0
64326,-47.34,21.96,1012.36,-122.5,-87.5,17.5
64355,-47.34,21.96,1012.23,52.5,-192.5,17.5
64385,-47.46,21.84,1012.11,157.5,-385.0,-52.5
64414,-47.46,21.72,1012.11,87.5,-35.0,140.0
64444,-47.34,21.59,1012.11,-35.0,-227.5,-122.5
64473,-47.46,21.47,1011.99,-35.0,-315.0,-87.5
64502,-47.34,21.47,1012.11,227.5,-350.0,0.0
64532,-47.34,21.35,1011.99,175.0,-350.0,-70.0
64561,-47.34,21.23,1011.99,-17.5,-227.5,52.5
64591,-47.09,21.23,1011.99,17.5,-122.5,-17.5
64620,-47.34,21.11,1011.99,157.5,-245.0,0.0
64650,-47.34,20.98,1011.99,157.5,-210.0,0.0
64679,-47.21,20.98,1011.87,140.0,-367.5,-52.5
64709,-46.97,20.98,1011.87,-17.5,-140.0,-52.5
64738,-46.97,20.86,1011.87,157.5,-315.0,-122.5
64768,-47.09,20.86,1011.75,122.5,-210.0,87.5
64797,-46.85,20.74,1011.62,140.0,-245.0,-70.0
64827,-46.85,20.62,1011.62,70.0,-175.0,-52.5
64856,-46.73,20.5,1011.62,175.0,-122.5,35.0
64886,-46.6,20.5,1011.62,210.0,-105.0,-122.5
64915,-46.73,20.5,1011.62,227.5,-175.0,-52.5
64945,-46.85,20.37,1011.62,332.5,-297.5,0.0
64975,-46.6,20.5,1011.62,297.5,-140.0,52.5
65005,-46.6,20.5,1011.75,385.0,-297.5,35.0
65034,-46.48,20.62,1011.62,245.0,-245.0,-87.5
65063,-46.36,20.62,1011.62,175.0,-87.5,-52.5
65093,-46.48,20.62,1011.62,140.0,-87.5,-122.5
65122,-46.6,20.62,1011.75,367.5,-280.0,0.0
65152,-46.6,20.74,1011.62,437.5,-227.5,87.5
65181,-46.48,20.86,1011.75,350.0,-350.0,-175.0
65210,-46.36,20.86,1011.75,297.5,-262.5,35.0
65239,-46.24,20.98,1011.75,385.0,-315.0,0.0
65269,-46.12,21.11,1011.62,140.0,70.0,-35.0
65298,-45.87,21.11,1011.75,-52.5,70.0,-17.5
65328,-45.99,21.35,1011.75,122.5,-157.5,-157.5
65357,-46.36,21.47,1011.87,245.0,-122.5,-87.5
65387,-46.48,21.47,1011.75,192.5,-262.5,-70.0
65416,-46.24,21.47,1011.75,175.0,-140.0,17.5
65446,-45.99,21.59,1011.75,122.5,-70.0,17.5
65476,-45.99,21.84,1011.75,122.5,-157.5,-192.5
65506,-46.24,21.84,1011.75,122.5,-122.5,35.0
65535,-46.36,21.84,1011.62,52.5,-140.0,17.5
65564,-46.36,21.96,1011.62,175.0,-280.0,-157.5
65593,-46.36,21.96,1011.62,140.0,-175.0,105.0
65622,-46.24,22.08,1011.75,52.5,-192.5,-87.5
65652,-46.24,22.2,1011.75,157.5,-87.5,17.5
65681,-46.36,22.2,1011.62,140.0,-175.0,17.5
65711,-46.36,22.2,1011.75,210.0,-192.5,-52.5
65740,-46.36,22.2,1011.75,262.5,-297.5,17.5
65770,-46.36,22.33,1011.62,140.0,-227.5,-52.5
65799,-46.36,22.45,1011.75,140.0,-210.0,-70.0
65829,-46.24,22.45,1011.75,157.5,-87.5,-17.5
65858,-46.24,22.57,1011.75,87.5,-175.0,-87.5
65888,-46.36,22.57,1011.75,87.5,-175.0,-70.0
65917,-46.36,22.57,1011.75,105.0,-35.0,0.0
65947,-46.36,22.69,1011.87,280.0,-227.5,0.0
65976,-46.36,22.81,1011.87,105.0,-262.5,-157.5
66006,-46.36,22.81,1011.87,105.0,-210.0,-35.0
66035,-46.24,22.81,1011.75,192.5,-245.0,17.5
66065,-46.12,22.81,1011.75,17.5,17.5,-52.5
66095,-46.12,22.81,1011.75,175.0,-87.5,-87.5
66124,-46.36,22.94,1011.75,70.0,-52.5,17.5
66154,-46.48,22.94,1011.75,227.5,-227.5,17.5
66183,-46.6,23.06,1011.75,245.0,-157.5,52.5
66213,-46.48,23.06,1011.75,87.5,-105.0,-52.5
66242,-46.36,23.18,1011.87,17.5,-17.5,17.5
66272,-46.36,23.18,1011.87,122.5,-87.5,-35.0
66301,-46.6,23.3,1011.87,70.0,-70.0,-35.0
66331,-46.85,23.18,1011.75,315.0,-437.5,-52.5
66360,-46.73,23.18,1011.87,-17.5,-70.0,70.0
66390,-46.6,23.18,1011.87,262.5,-227.5,-17.5
66419,-46.6,23.3,1011.87,105.0,-87.5,35.0
66449,-46.6,23.42,1011.87,192.5,-350.0,-175.0
66478,-46.85,23.42,1012.11,140.0,-192.5,0.0
66508,-46.73,23.42,1012.11,210.0,-315.0,-52.5
66537,-46.6,23.42,1012.11,122.5,-122.5,70.0
66567,-46.6,23.55,1012.11,0.0,-70.0,-52.5
66597,-46.6,23.67,1012.11,192.5,-262.5,-122.5
66626,-46.85,23.42,1011.99,87.5,-262.5,-35.0
66656,-46.73,23.55,1012.11,87.5,-122.5,70.0
66685,-46.6,23.67,1012.11,175.0,-385.0,-175.0
66714,-46.6,23.67,1012.11,0.0,-175.0,-122.5
66743,-46.73,23.67,1012.11,210.0,-262.5,-52.5
66773,-46.73,23.79,1012.11,87.5,-17.5,52.5
66802,-46.6,23.79,1012.23,140.0,-280.0,-140.0
66831,-46.6,23.79,1012.23,-17.5,-157.5,0.0
66860,-46.6,23.79,1012.23,210.0,-315.0,-122.5
66890,-46.73,23.67,1012.11,105.0,-52.5,105.0
66919,-46.6,23.79,1012.11,122.5,-87.5,52.5
66949,-46.6,23.79,1012.11,87.5,-87.5,-17.5
66978,-46.73,23.79,1012.11,0.0,-35.0,17.5
67008,-46.85,23.79,1012.11,367.5,-280.0,52.5
67037,-46.73,23.79,1012.11,175.0,-35.0,122.5
67067,-46.6,23.91,1012.11,-70.0,-52.5,-17.5
67096,-46.6,23.91,1012.11,367.5,-472.5,-17.5
67126,-46.6,23.91,1011.99,420.0,-577.5,-87.5
67155,-46.73,24.03,1011.99,-315.0,87.5,-192.5
67185,-46.97,24.03,1011.99,-297.5,-35.0,0.0
67215,-46.85,23.91,1012.11,175.0,-245.0,210.0
67244,-46.48,24.03,1012.11,192.5,-175.0,-87.5
67273,-46.6,23.91,1012.11,-157.5,-87.5,-140.0
67302,-46.85,23.79,1012.11,52.5,-122.5,105.0
67332,-46.85,23.91,1012.11,350.0,-472.5,-52.5
67361,-46.85,23.91,1012.23,87.5,-175.0,35.0
67391,-46.85,23.91,1012.11,105.0,-332.5,-87.5
67420,-46.97,23.91,1012.23,-17.5,-105.0,52.5
67450,-46.97,23.91,1012.23,262.5,-385.0,17.5
67479,-46.85,23.79,1012.11,105.0,-350.0,0.0
67509,-46.73,23.79,1012.23,17.5,-245.0,0.0
67538,-46.6,23.79,1012.11,140.0,-367.5,-52.5
67568,-46.6,23.67,1012.11,70.0,-262.5,17.5
67597,-46.6,23.67,1012.11,227.5,-437.5,-87.5
67627,-46.24,23.67,1012.11,-87.5,-175.0,-17.5
67656,-46.12,23.67,1012.11,-175.0,-140.0,-175.0
67686,-46.24,23.67,1012.23,87.5,-192.5,0.0
67716,-46.24,23.42,1012.11,280.0,-490.0,-52.5
67746,-46.12,23.42,1012.11,-70.0,-140.0,17.5
67775,-45.99,23.42,1012.11,0.0,-140.0,-35.0
67804,-45.99,23.42,1012.11,-35.0,17.5,35.0
67834,-46.12,23.3,1012.11,140.0,-367.5,0.0
67863,-45.99,23.18,1011.99,227.5,-315.0,0.0
67893,-45.87,23.06,1011.99,0.0,-105.0,17.5
67922,-45.75,23.18,1012.11,0.0,-35.0,17.5
67952,-45.99,23.3,1012.23,105.0,-105.0,0.0
67981,-46.36,23.18,1012.11,52.5,-455.0,-52.5
68011,-45.99,23.06,1012.11,-70.0,-192.5,35.0
68040,-45.51,22.94,1012.11,87.5,-52.5,-52.5
68070,-45.38,22.94,1012.23,122.5,-87.5,35.0
68099,-45.63,22.81,1012.11,-105.0,-70.0,-35.0
68129,-45.75,22.69,1012.11,350.0,-490.0,-17.5
68158,-45.51,22.69,1012.11,367.5,-350.0,-52.5
68188,-45.38,22.69,1012.23,350.0,-192.5,-35.0
68217,-45.26,22.69,1012.23,87.5,140.0,245.0
68247,-45.02,22.94,1012.36,-280.0,315.0,35.0
68276,-45.14,22.81,1012.23,-70.0,87.5,-35.0
68305,-45.51,22.57,1012.23,105.0,-105.0,-17.5
68334,-45.63,22.45,1012.23,297.5,-140.0,35.0
68363,-45.38,22.57,1012.11,87.5,-87.5,-52.5
68393,-45.38,22.45,1012.23,-122.5,-52.5,-122.5
68422,-45.75,22.45,1012.36,262.5,-455.0,-105.0
68451,-45.75,22.45,1012.23,227.5,-297.5,35.0
68480,-45.63,22.45,1012.23,140.0,-192.5,-87.5
68510,-45.51,22.45,1012.36,-122.5,192.5,-87.5
68539,-45.87,22.45,1012.36,350.0,-507.5,-245.0
68569,-45.87,22.33,1012.36,262.5,-35.0,157.5
68598,-45.63,22.33,1012.23,140.0,-87.5,-35.0
68628,-45.63,22.33,1012.23,87.5,-17.5,-17.5
68657,-45.87,22.45,1012.23,262.5,-210.0,-52.5
68687,-45.87,22.45,1012.23,35.0,-17.5,35.0
68717,-45.99,22.45,1012.23,17.5,0.0,35.0
68747,-45.99,22.45,1012.23,262.5,-140.0,-52.5
68776,-45.87,22.45,1012.23,157.5,-140.0,0.0
68806,-45.99,22.45,1012.23,52.5,35.0,-35.0
68836,-46.24,22.57,1012.23,332.5,-157.5,70.0
68865,-46.36,22.45,1012.11,280.0,-280.0,-52.5
68894,-46.36,22.57,1012.11,350.0,-385.0,35.0
68923,-46.24,22.69,1012.23,87.5,70.0,87.5
68953,-46.36,22.69,1012.11,280.0,-420.0,-210.0
68982,-46.48,22.57,1012.11,-227.5,52.5,175.0
69012,-46.48,22.57,1012.23,-227.5,-280.0,70.0
69041,-46.6,22.57,1012.36,245.0,-315.0,507.5
69071,-46.6,22.45,1012.36,245.0,-752.5,35.0
69100,-46.6,22.57,1012.23,-227.5,-210.0,210.0
69130,-46.36,22.57,1012.36,140.0,-87.5,280.0
69159,-46.24,22.57,1012.48,367.5,-385.0,367.5
69189,-46.24,22.81,1012.36,262.5,-210.0,140.0
69218,-46.36,22.94,1012.36,245.0,-280.0,-175.0
69248,-46.36,22.94,1012.36,175.0,-245.0,-367.5
69277,-46.24,22.94,1012.23,210.0,-402.5,-542.5
69307,-46.24,22.94,1012.36,122.5,-122.5,-157.5
69336,-46.12,22.81,1012.36,192.5,-227.5,-210.0
69366,-46.12,22.81,1012.36,70.0,-122.5,-35.0
69396,-46.24,22.94,1012.36,402.5,-385.0,-70.0
69425,-46.12,22.94,1012.36,140.0,0.0,70.0
69455,-45.87,23.06,1012.23,315.0,-227.5,-175.0
69484,-45.75,23.18,1012.23,-70.0,52.5,-297.5
69514,-45.99,23.18,1012.23,262.5,-367.5,-332.5
69543,-46.12,23.06,1012.23,105.0,-52.5,70.0
69573,-46.12,23.18,1012.11,262.5,-402.5,52.5
69602,-45.99,23.18,1012.23,140.0,-87.5,157.5
69632,-45.87,23.3,1012.11,227.5,-122.5,70.0
69661,-45.87,23.3,1012.11,52.5,17.5,52.5
69691,-45.87,23.42,1011.99,87.5,-245.0,-35.0
69720,-45.87,23.42,1011.99,175.0,-280.0,-35.0
69750,-45.87,23.42,1012.11,280.0,-280.0,17.5
69779,-45.75,23.67,1012.11,157.5,-70.0,157.5
69809,-45.63,23.67,1011.99,52.5,-332.5,-210.0
69838,-45.75,23.67,1011.99,210.0,-297.5,-70.0
69868,-45.63,23.67,1011.99,140.0,-140.0,17.5
69897,-45.63,23.67,1011.99,70.0,35.0,-35.0
69926,-45.63,23.67,1011.99,122.5,-87.5,52.5
69956,-45.63,23.91,1011.87,175.0,-192.5,-70.0
69985,-45.75,23.91,1011.99,87.5,-140.0,-52.5
70015,-45.75,23.91,1011.99,262.5,-367.5,35.0
70044,-45.63,23.91,1011.99,297.5,-385.0,-175.0
70073,-45.63,24.03,1011.87,17.5,-52.5,105.0
70102,-45.63,24.03,1011.99,157.5,-210.0,-17.5
70132,-45.51,24.16,1011.87,-175.0,87.5,-17.5
70161,-45.63,24.16,1011.87,227.5,-385.0,-192.5
70191,-45.63,24.16,1011.87,-105.0,70.0,122.5
70220,-45.51,24.16,1011.99,52.5,-175.0,-122.5
70250,-45.51,24.16,1011.99,-35.0,52.5,0.0
70280,-45.63,24.16,1011.99,157.5,-210.0,-52.5
70310,-45.63,24.16,1011.99,140.0,-192.5,-87.5
70339,-45.75,24.03,1012.11,192.5,-280.0,-52.5
70369,-45.63,24.16,1011.99,105.0,-122.5,105.0
70398,-45.51,24.16,1012.11,35.0,-35.0,0.0
70428,-45.63,24.16,1011.99,227.5,-245.0,-70.0
70457,-45.75,24.16,1011.99,105.0,-175.0,-17.5
70486,-45.63,24.16,1012.11,210.0,-157.5,35.0
70516,-45.63,24.16,1012.11,87.5,-87.5,-17.5
70545,-45.75,24.16,1012.11,245.0,-227.5,52.5
70575,-45.87,24.16,1012.11,87.5,-70.0,17.5
70604,-45.87,24.4,1012.23,350.0,-455.0,-87.5
70634,-45.87,24.4,1012.11,0.0,-315.0,-105.0
70663,-45.87,24.4,1012.23,-17.5,-437.5,-157.5
70692,-45.75,24.4,1012.36,52.5,-122.5,0.0
70721,-45.63,24.4,1012.23,122.5,-245.0,-35.0
70751,-45.63,24.4,1012.23,-52.5,-192.5,-87.5
70780,-45.75,24.4,1012.36,-70.0,-210.0,-52.5
70810,-45.87,24.4,1012.36,-17.5,-280.0,-70.0
70839,-45.87,24.28,1012.36,245.0,-210.0,52.5
70869,-45.63,24.28,1012.36,0.0,-297.5,-52.5
70898,-45.38,24.28,1012.48,157.5,-297.5,-35.0
70928,-45.51,24.28,1012.48,-87.5,0.0,0.0
70958,-45.51,24.16,1012.6,52.5,-245.0,0.0
70988,-45.63,24.03,1012.6,122.5,-455.0,-70.0
71017,-45.75,24.03,1012.6,350.0,-630.0,-35.0
71047,-45.51,24.03,1012.72,-262.5,17.5,105.0
71076,-45.14,24.03,1012.72,122.5,-367.5,-52.5
71105,-44.9,24.03,1012.72,-52.5,52.5,175.0
71135,-44.77,24.03,1012.84,-122.5,0.0,-192.5
71164,-45.14,23.91,1012.72,157.5,-420.0,-52.5
71194,-45.14,23.67,1012.6,0.0,-175.0,140.0
71223,-44.9,23.67,1012.72,70.0,-332.5,-70.0
71253,-44.65,23.55,1012.6,-175.0,-350.0,-52.5
71282,-44.65,23.42,1012.72,-367.5,227.5,157.5
71312,-44.9,23.42,1012.84,227.5,-297.5,-52.5
71341,-45.38,23.3,1012.84,297.5,-455.0,122.5
71371,-45.14,23.3,1012.84,332.5,-315.0,105.0
71400,-44.65,23.3,1012.84,17.5,-140.0,-122.5
71430,-44.41,23.18,1012.97,35.0,-192.5,-87.5
71459,-44.29,22.94,1012.84,105.0,-210.0,140.0
71489,-44.04,22.69,1012.72,-280.0,280.0,122.5
71518,-43.55,22.69,1012.84,-350.0,857.5,105.0
71548,-43.92,22.81,1012.97,87.5,455.0,-87.5
71578,-44.77,22.57,1012.84,70.0,105.0,70.0
71608,-45.26,22.45,1012.72,280.0,-367.5,-87.5
71637,-45.26,22.33,1012.6,332.5,-280.0,35.0
71666,-45.02,22.45,1012.84,420.0,-507.5,-297.5
71695,-45.14,22.45,1012.84,70.0,-350.0,-227.5
71724,-45.38,22.2,1012.6,210.0,-402.5,-105.0
71753,-45.26,22.2,1012.6,262.5,-192.5,35.0
71782,-44.9,22.33,1012.84,70.0,-35.0,-35.0
71812,-45.02,22.33,1012.72,140.0,-122.5,-70.0
71841,-45.38,22.2,1012.6,192.5,-35.0,105.0
71871,-45.26,22.2,1012.72,105.0,-87.5,-70.0
71900,-45.14,22.2,1012.72,122.5,-280.0,-227.5
71930,-45.14,22.2,1012.72,420.0,-315.0,-157.5
71959,-45.14,22.2,1012.72,-210.0,525.0,280.0
71989,-45.14,22.33,1012.72,-17.5,192.5,17.5
72018,-45.51,22.2,1012.72,122.5,-17.5,0.0
72048,-45.87,22.2,1012.72,490.0,-350.0,17.5
72077,-45.87,22.2,1012.6,122.5,-385.0,-157.5
72107,-45.87,22.2,1012.6,-52.5,-70.0,-35.0
72136,-45.87,22.2,1012.72,507.5,-542.5,-140.0
72166,-45.87,22.2,1012.6,280.0,-210.0,-140.0
72195,-45.99,22.2,1012.48,105.0,-192.5,-157.5
72224,-45.99,22.45,1012.48,140.0,-245.0,-87.5
72253,-46.12,22.33,1012.48,350.0,-385.0,-192.5
72282,-46.12,22.33,1012.36,105.0,52.5,105.0
72312,-46.12,22.45,1012.36,245.0,-332.5,-122.5
72341,-45.99,22.33,1012.36,70.0,-87.5,70.0
72371,-46.12,22.45,1012.23,140.0,-262.5,-52.5
72400,-46.12,22.57,1012.23,105.0,-52.5,-17.5
72430,-46.12,22.69,1012.23,175.0,-175.0,-35.0
72459,-46.24,22.69,1012.11,210.0,-227.5,35.0
72489,-46.24,22.69,1012.11,105.0,-245.0,-122.5
72518,-46.12,22.69,1012.11,122.5,-140.0,52.5
72548,-46.12,22.81,1012.11,245.0,-175.0,35.0
72577,-46.12,22.94,1012.11,105.0,-122.5,0.0
72607,-46.12,22.94,1011.99,227.5,-332.5,0.0
72636,-46.12,22.94,1011.99,122.5,-105.0,70.0
72666,-46.12,22.94,1011.87,227.5,-245.0,-35.0
72695,-46.12,23.06,1011.87,87.5,-17.5,17.5
72725,-46.24,23.18,1011.87,192.5,-315.0,-70.0
72754,-46.12,23.18,1011.99,140.0,-52.5,157.5
72783,-46.12,23.18,1011.87,-35.0,-245.0,-122.5
72812,-46.12,23.18,1011.87,192.5,-350.0,0.0
72841,-46.12,23.18,1011.87,280.0,-280.0,-17.5
72871,-46.12,23.18,1011.87,175.0,-17.5,87.5
72900,-46.24,23.42,1011.87,52.5,-17.5,122.5
72930,-46.24,23.42,1011.87,280.0,-507.5,-157.5
72959,-46.36,23.55,1011.87,350.0,-420.0,-35.0
72989,-46.24,23.55,1011.75,105.0,-157.5,17.5
73018,-45.99,23.55,1011.75,-17.5,0.0,70.0
73048,-45.87,23.67,1011.87,140.0,-315.0,-87.5
73077,-46.12,23.79,1011.87,245.0,-350.0,-87.5
73107,-46.24,23.79,1011.75,52.5,-245.0,-17.5
73136,-45.99,23.79,1011.87,140.0,-87.5,52.5
73166,-45.87,23.79,1011.75,402.5,-612.5,-70.0
73195,-45.63,23.79,1011.62,-210.0,-175.0,-87.5
73225,-45.63,23.91,1011.75,17.5,17.5,-122.5
73255,-46.12,24.03,1011.87,490.0,-297.5,105.0
73285,-46.36,24.16,1011.87,682.5,-962.5,-17.5
73314,-46.12,24.16,1011.62,-210.0,-367.5,-52.5
73343,-45.38,24.16,1011.75,-87.5,87.5,-35.0
73373,-44.9,24.16,1011.75,-17.5,122.5,-105.0
73402,-45.02,24.16,1011.62,-315.0,175.0,-35.0
73431,-45.63,24.03,1011.62,297.5,-297.5,0.0
73460,-45.87,24.16,1011.75,1015.0,-875.0,70.0
73490,-45.38,24.4,1011.62,122.5,-245.0,35.0
73519,-45.02,24.4,1011.62,35.0,-262.5,-122.5
73549,-45.02,24.4,1011.62,280.0,-490.0,-157.5
73578,-44.9,24.28,1011.5,157.5,-367.5,-105.0
73608,-44.53,24.4,1011.5,-35.0,-52.5,-122.5
73637,-44.41,24.52,1011.5,-17.5,-210.0,0.0
73667,-44.41,24.64,1011.5,-17.5,122.5,52.5
73696,-44.53,24.64,1011.62,35.0,17.5,87.5
73726,-44.41,24.64,1011.5,262.5,-245.0,35.0
73755,-44.16,24.64,1011.5,140.0,-192.5,0.0
73785,-43.92,24.77,1011.5,17.5,-140.0,-210.0
73814,-44.16,24.89,1011.62,-52.5,35.0,-105.0
73844,-44.53,24.77,1011.62,437.5,-542.5,-140.0
73873,-44.65,24.64,1011.38,332.5,-525.0,70.0
73903,-44.16,24.77,1011.5,0.0,-245.0,-105.0
73933,-43.92,24.77,1011.62,-35.0,70.0,52.5
73962,-43.92,24.89,1011.62,280.0,-297.5,-70.0
73991,-44.04,24.89,1011.62,105.0,-210.0,-70.0
74020,-44.16,24.77,1011.62,35.0,-280.0,35.0
74050,-44.04,24.89,1011.75,402.5,-437.5,0.0
74079,-43.92,24.89,1011.75,315.0,-70.0,122.5
74109,-43.68,25.01,1011.62,315.0,-350.0,-17.5
74138,-43.55,25.01,1011.62,-332.5,0.0,-210.0
74168,-43.55,25.01,1011.62,210.0,-420.0,17.5
74197,-43.43,25.13,1011.62,35.0,-70.0,0.0
74227,-43.31,25.13,1011.62,87.5,87.5,-17.5
74256,-43.43,25.13,1011.75,0.0,-122.5,0.0
74286,-43.55,25.13,1011.62,157.5,-297.5,-122.5
74315,-43.68,25.13,1011.75,-122.5,0.0,52.5
74345,-43.55,25.13,1011.87,245.0,-297.5,-35.0
74374,-43.31,25.13,1011.87,17.5,-70.0,17.5
74404,-43.19,25.13,1011.87,70.0,-105.0,17.5
74434,-43.43,25.13,1011.99,70.0,-140.0,-87.5
74464,-43.68,25.01,1011.87,210.0,-192.5,52.5
74493,-43.68,25.01,1011.87,87.5,-227.5,0.0
74522,-43.31,25.13,1011.99,175.0,-315.0,-157.5
74551,-43.31,25.13,1011.99,87.5,-52.5,87.5
74580,-43.31,25.13,1012.11,175.0,-280.0,-87.5
74610,-43.31,25.13,1012.11,0.0,-52.5,-17.5
74639,-43.43,25.13,1012.11,280.0,-332.5,-70.0
74669,-43.43,25.01,1012.11,192.5,-227.5,87.5
74698,-43.19,25.13,1012.11,-35.0,17.5,-52.5
74728,-43.19,25.01,1012.23,140.0,-315.0,-105.0
74757,-43.43,25.01,1012.23,315.0,-140.0,122.5
74787,-43.31,25.13,1012.11,140.0,-175.0,0.0
74816,-43.19,25.25,1012.11,52.5,-280.0,-157.5
74846,-43.31,25.13,1012.23,105.0,-192.5,-157.5
74875,-43.31,25.01,1012.23,210.0,-175.0,70.0
74905,-43.19,25.13,1012.23,-87.5,245.0,35.0
74935,-43.19,25.13,1012.36,17.5,-262.5,-70.0
74965,-43.31,25.13,1012.36,0.0,-87.5,-52.5
74995,-43.43,25.13,1012.48,140.0,-17.5,105.0
75024,-43.43,25.13,1012.48,455.0,-560.0,-140.0
75053,-43.19,25.13,1012.48,-192.5,245.0,245.0
75082,-42.94,25.25,1012.6,-140.0,70.0,-175.0
75112,-43.43,25.13,1012.6,-17.5,52.5,-70.0
75141,-43.8,24.89,1012.6,507.5,-647.5,-87.5
75171,-43.68,24.89,1012.6,-17.5,-157.5,140.0
75200,-43.31,24.89,1012.72,52.5,-87.5,-52.5
75230,-43.19,24.89,1012.72,105.0,-140.0,-140.0
75259,-43.55,24.77,1012.84,52.5,-35.0,17.5
75289,-43.8,24.89,1012.72,420.0,-350.0,87.5
75318,-43.68,24.89,1012.84,-17.5,-210.0,-87.5
75348,-43.68,24.89,1012.84,245.0,-367.5,-35.0
75377,-43.68,24.89,1012.84,262.5,-245.0,-35.0
75407,-43.68,24.89,1012.84,157.5,-52.5,70.0
75436,-43.68,24.89,1012.84,87.5,-192.5,17.5
75466,-43.8,24.89,1012.84,262.5,-385.0,-35.0
75495,-43.68,24.89,1012.84,175.0,-87.5,122.5
75525,-43.55,25.01,1012.72,-70.0,-17.5,-105.0
75554,-43.68,25.01,1012.84,-122.5,-105.0,-140.0
75583,-43.8,24.89,1012.84,210.0,-280.0,17.5
75613,-43.68,25.01,1012.84,-17.5,87.5,17.5
75642,-43.68,25.01,1012.97,192.5,-175.0,-70.0
75672,-43.8,24.89,1012.84,-17.5,-175.0,-122.5
75701,-44.04,24.89,1012.84,105.0,-157.5,-17.5
75731,-43.92,24.89,1012.84,122.5,-122.5,52.5
75760,-43.68,24.89,1012.84,-35.0,-105.0,-140.0
75790,-43.92,24.89,1012.84,245.0,-315.0,-52.5
75819,-44.04,24.89,1012.84,-52.5,52.5,-17.5
75849,-44.29,24.89,1012.97,35.0,-192.5,52.5
75878,-44.16,24.89,1012.84,297.5,-350.0,52.5
75908,-44.16,24.77,1012.84,87.5,-122.5,-17.5
75937,-44.04,24.89,1012.84,70.0,-175.0,0.0
75967,-44.16,24.89,1012.84,192.5,-280.0,-52.5
75996,-44.29,24.89,1012.84,35.0,-157.5,-35.0
76026,-44.29,24.77,1012.84,210.0,-402.5,-35.0
76055,-44.16,24.64,1012.84,-17.5,-175.0,52.5
76084,-43.92,24.77,1012.84,17.5,-262.5,-140.0
76113,-43.92,24.77,1012.84,-70.0,-87.5,-105.0
76142,-44.04,24.64,1012.84,-52.5,-52.5,105.0
76172,-44.16,24.64,1012.84,140.0,-262.5,0.0
76201,-44.16,24.64,1012.84,70.0,-280.0,-35.0
76231,-44.16,24.64,1012.97,-35.0,-157.5,17.5
76260,-44.04,24.64,1012.97,0.0,-175.0,0.0
76290,-44.04,24.52,1012.97,-122.5,-122.5,17.5
76319,-44.16,24.4,1013.09,-157.5,-35.0,-87.5
76349,-44.41,24.4,1012.97,-17.5,-227.5,70.0
76378,-44.29,24.28,1013.09,210.0,-332.5,105.0
76408,-43.92,24.28,1013.09,0.0,-245.0,-105.0
76437,-43.92,24.16,1013.09,87.5,-245.0,-87.5
76467,-44.04,24.03,1013.09,140.0,-210.0,-52.5
76496,-44.04,23.91,1012.97,297.5,-420.0,17.5
76526,-43.92,24.03,1012.97,-175.0,-262.5,-157.5
76555,-43.8,23.91,1013.09,-227.5,-157.5,-87.5
76584,-43.92,23.67,1013.09,315.0,-455.0,52.5
76614,-43.8,23.55,1012.97,52.5,-140.0,70.0
76643,-43.55,23.55,1012.84,-157.5,-35.0,-35.0
76672,-43.43,23.42,1012.97,-35.0,52.5,0.0
76701,-43.31,23.42,1012.97,52.5,105.0,87.5
76731,-43.43,23.3,1012.84,-52.5,-140.0,-192.5
76760,-43.68,23.18,1012.84,-105.0,-70.0,17.5
76790,-43.8,23.18,1012.84,245.0,-525.0,-140.0
76819,-43.8,23.18,1012.84,-52.5,-157.5,17.5
76849,-43.68,22.94,1012.84,-52.5,-105.0,-70.0
76878,-43.68,22.69,1012.72,52.5,17.5,70.0
76908,-43.68,22.57,1012.6,17.5,-192.5,-52.5
76937,-43.68,22.45,1012.6,140.0,-245.0,-17.5
76967,-43.8,22.2,1012.6,87.5,-52.5,17.5
76997,-43.8,22.2,1012.72,472.5,-227.5,0.0
77027,-43.92,22.2,1012.6,70.0,-52.5,0.0
77057,-43.92,22.08,1012.84,280.0,-297.5,-52.5
77086,-43.8,21.96,1012.72,297.5,-52.5,157.5
77116,-43.68,22.08,1012.72,122.5,-175.0,-70.0
77145,-43.68,22.08,1012.6,175.0,-157.5,-35.0
77174,-43.8,22.08,1012.6,-35.0,17.5,-70.0
77203,-43.92,21.96,1012.6,332.5,-385.0,-52.5
77233,-43.92,21.96,1012.6,227.5,-52.5,35.0
77262,-43.92,22.08,1012.6,332.5,-367.5,-157.5
77292,-43.92,22.08,1012.6,-35.0,-105.0,-105.0
77321,-43.92,22.08,1012.6,245.0,-402.5,-122.5
77351,-43.92,22.08,1012.6,210.0,-122.5,-52.5
77380,-43.8,21.96,1012.6,192.5,-157.5,-105.0
77410,-43.8,22.08,1012.6,52.5,0.0,17.5
77440,-43.92,22.2,1012.6,0.0,0.0,-70.0
77470,-44.16,22.2,1012.6,297.5,-245.0,-17.5
77499,-44.16,22.2,1012.6,262.5,-280.0,-52.5
77529,-43.92,22.2,1012.6,87.5,17.5,87.5
77559,-43.68,22.33,1012.6,315.0,-245.0,-105.0
77588,-43.92,22.33,1012.6,175.0,-227.5,-87.5
77617,-44.16,22.45,1012.6,227.5,-157.5,17.5
77646,-44.16,22.45,1012.48,105.0,-140.0,35.0
77676,-44.04,22.57,1012.6,210.0,-350.0,-245.0
77705,-44.04,22.57,1012.6,122.5,-140.0,-17.5
77735,-44.04,22.69,1012.6,157.5,-122.5,87.5
77764,-44.04,22.69,1012.6,175.0,-105.0,0.0
77794,-44.04,22.69,1012.6,52.5,-122.5,-35.0
77823,-44.16,22.81,1012.6,87.5,-210.0,-122.5
77853,-44.16,22.81,1012.72,245.0,-332.5,-105.0
77882,-44.04,22.94,1012.72,140.0,0.0,17.5
77912,-43.92,22.94,1012.72,-35.0,-70.0,-105.0
77941,-44.04,22.94,1012.72,175.0,-210.0,-70.0
77971,-44.16,22.94,1012.84,402.5,-332.5,0.0
78000,-44.16,22.94,1012.72,227.5,-192.5,0.0
78030,-44.04,23.06,1012.6,35.0,-227.5,-175.0
78059,-44.16,23.06,1012.72,87.5,-315.0,-175.0
78089,-44.16,23.06,1012.6,140.0,-227.5,35.0
78118,-44.04,23.06,1012.6,157.5,-87.5,17.5
78147,-44.16,23.18,1012.48,157.5,-245.0,-87.5
78176,-44.29,23.18,1012.6,-35.0,-70.0,-17.5
78205,-44.41,23.18,1012.6,262.5,-297.5,-35.0
78235,-44.16,23.18,1012.6,227.5,-210.0,0.0
78264,-44.16,23.18,1012.6,192.5,-402.5,-175.0
78293,-44.04,23.3,1012.6,35.0,70.0,192.5
78322,-43.92,23.42,1012.6,52.5,-192.5,-175.0
78352,-44.04,23.42,1012.48,210.0,-315.0,-87.5
78381,-44.16,23.42,1012.36,17.5,-70.0,0.0
78411,-44.04,23.42,1012.48,175.0,-367.5,-140.0
78440,-43.92,23.42,1012.36,245.0,-262.5,-70.0
78470,-43.8,23.42,1012.48,35.0,0.0,35.0
78500,-43.92,23.42,1012.6,105.0,0.0,87.5
78530,-43.92,23.55,1012.48,122.5,-157.5,-17.5
78559,-44.04,23.55,1012.48,87.5,-245.0,-17.5
78589,-43.92,23.55,1012.48,35.0,-70.0,35.0
78619,-43.92,23.55,1012.48,122.5,-140.0,-122.5
78648,-43.92,23.55,1012.36,175.0,-210.0,-17.5
78677,-44.04,23.55,1012.36,140.0,-192.5,17.5
78706,-43.92,23.67,1012.23,157.5,-157.5,-35.0
78735,-43.92,23.55,1012.11,227.5,-210.0,-52.5
78764,-44.04,23.55,1012.11,280.0,-175.0,105.0
78794,-43.8,23.67,1012.11,280.0,-157.5,-70.0
78823,-43.92,23.79,1012.11,-105.0,-140.0,-262.5
78852,-44.29,23.67,1012.11,297.5,-595.0,-17.5
78881,-44.16,23.67,1012.11,140.0,-105.0,87.5
78911,-43.92,23.67,1012.11,385.0,-315.0,-122.5
78940,-43.68,23.79,1011.99,-157.5,192.5,70.0
78970,-43.92,23.79,1012.11,17.5,-70.0,-175.0
78999,-44.16,23.91,1012.23,350.0,-315.0,52.5
79029,-44.04,23.91,1012.11,297.5,-175.0,87.5
79058,-43.92,23.91,1011.99,87.5,-140.0,-35.0
79088,-43.92,23.91,1011.99,175.0,-140.0,-35.0
79117,-43.92,24.03,1011.87,122.5,-35.0,70.0
79147,-43.92,24.03,1011.87,-17.5,-210.0,-157.5
79176,-44.16,24.03,1011.87,140.0,-315.0,-105.0
79205,-44.04,24.03,1011.75,70.0,-105.0,0.0
79235,-43.92,24.16,1011.87,17.5,-175.0,-122.5
79264,-44.04,24.16,1011.87,140.0,-175.0,17.5
79294,-44.04,24.16,1011.87,157.5,-227.5,52.5
79323,-44.16,24.16,1011.75,0.0,-87.5,-52.5
79353,-44.16,24.16,1011.87,192.5,-262.5,-87.5
79382,-44.16,24.16,1011.87,192.5,-210.0,-35.0
79412,-44.16,24.16,1011.87,192.5,-210.0,52.5
79441,-44.04,24.16,1011.75,70.0,-280.0,-52.5
79471,-43.92,24.16,1011.75,17.5,-52.5,-17.5
79500,-43.92,24.28,1011.75,122.5,-192.5,-52.5
79530,-44.04,24.16,1011.62,17.5,-122.5,-70.0
79559,-44.16,24.16,1011.75,140.0,-210.0,17.5
79589,-44.16,24.4,1011.75,227.5,-210.0,-70.0
79618,-44.16,24.28,1011.75,-35.0,-122.5,-70.0
79647,-44.16,24.16,1011.75,262.5,-437.5,0.0
79677,-44.04,24.16,1011.75,192.5,-105.0,52.5
79706,-43.92,24.28,1011.62,-17.5,-70.0,-140.0
79735,-43.92,24.28,1011.75,-87.5,140.0,0.0
79764,-44.16,24.16,1011.75,70.0,-227.5,-70.0
79794,-44.41,24.28,1011.75,175.0,-402.5,-52.5
79823,-44.41,24.4,1011.75,-52.5,0.0,0.0
79853,-44.29,24.28,1011.75,87.5,-280.0,-140.0
79882,-44.29,24.16,1011.75,140.0,-437.5,-52.5
79912,-44.16,24.16,1011.87,-70.0,-35.0,35.0
79941,-44.16,24.16,1011.87,-245.0,297.5,192.5
79971,-44.41,24.16,1011.87,-17.5,-52.5,105.0
80000,-44.41,24.03,1011.87,0.0,-262.5,-35.0
80030,-44.41,23.91,1011.87,-52.5,-227.5,17.5
80059,-44.41,23.91,1011.87,-35.0,-105.0,-35.0
80089,-44.29,23.79,1011.99,70.0,-210.0,-70.0
80118,-44.53,23.79,1011.99,-140.0,-122.5,-17.5
80147,-44.77,23.67,1011.87,105.0,-542.5,-87.5
80176,-44.53,23.55,1011.99,-192.5,-17.5,70.0
80205,-44.16,23.42,1012.11,122.5,-192.5,-87.5
80234,-44.04,23.42,1012.11,-157.5,140.0,-105.0
80263,-44.65,23.06,1011.87,-35.0,-437.5,-210.0
80292,-44.9,22.81,1011.75,-17.5,-350.0,87.5
80321,-44.65,22.57,1011.75,122.5,-210.0,140.0
80351,-44.16,22.69,1011.87,87.5,-35.0,122.5
80380,-44.16,22.69,1011.87,-17.5,-210.0,-105.0
80410,-44.65,22.57,1011.87,140.0,-332.5,-70.0
80439,-44.9,22.45,1011.75,402.5,-770.0,-35.0
80469,-44.65,22.33,1011.62,-420.0,70.0,-70.0
80498,-44.29,22.2,1011.62,-52.5,-245.0,-157.5
80528,-44.29,21.84,1011.62,-157.5,-175.0,-17.5
80557,-44.41,21.59,1011.87,87.5,-175.0,402.5
80587,-44.53,21.47,1011.87,367.5,-227.5,525.0
80616,-44.41,21.47,1011.62,122.5,122.5,245.0
80645,-44.04,21.47,1011.62,-210.0,455.0,140.0
80674,-43.92,21.47,1011.62,-385.0,770.0,70.0
80703,-44.41,21.23,1011.75,-490.0,840.0,52.5
80733,-44.65,20.98,1011.62,-35.0,542.5,245.0
