timestamp_ms,acc_x,acc_y,acc_z,gyro_x,gyro_y,gyro_z
83,3.42,1.34,31.72,5670.0,6247.5,28385.0
113,10.25,2.44,93.21,-1680.0,1050.0,-3990.0
142,8.54,0.73,151.04,-280.0,-192.5,-8400.0
172,2.93,-1.59,205.08,210.0,-245.0,-437.5
202,2.44,-2.93,255.71,245.0,-210.0,0.0
232,1.95,-4.15,303.29,157.5,-175.0,-17.5
262,1.46,-5.37,347.82,87.5,-175.0,-35.0
291,1.1,-6.34,389.67,122.5,-192.5,-35.0
321,0.73,-7.44,428.83,52.5,-157.5,-35.0
351,0.37,-8.42,465.55,122.5,-175.0,-35.0
381,0.0,-9.27,499.83,122.5,-175.0,-35.0
411,-0.37,-10.25,532.16,122.5,-192.5,-35.0
441,-0.73,-10.98,562.42,105.0,-175.0,-35.0
470,-0.98,-11.71,590.72,105.0,-175.0,-17.5
500,-1.22,-12.44,617.32,140.0,-192.5,-17.5
529,-1.59,-13.05,642.21,122.5,-175.0,-17.5
559,-1.83,-13.66,665.63,105.0,-157.5,-17.5
589,-1.95,-14.27,687.47,105.0,-175.0,-35.0
619,-2.2,-14.88,708.09,192.5,-175.0,-17.5
649,-2.44,-15.37,727.36,332.5,-210.0,-122.5
679,-2.68,-15.86,745.42,210.0,-210.0,-52.5
709,-2.81,-16.23,762.26,122.5,-175.0,0.0
738,-2.93,-16.71,778.12,105.0,-175.0,0.0
768,-3.17,-17.08,793.0,122.5,-175.0,-35.0
797,-3.17,-17.45,806.91,105.0,-192.5,-17.5
827,-3.42,-17.69,819.96,105.0,-175.0,-35.0
856,-3.54,-18.06,832.28,105.0,-175.0,-35.0
886,-3.66,-18.3,843.75,122.5,-175.0,-35.0
915,-3.66,-18.54,854.49,140.0,-175.0,-35.0
945,-3.9,-18.79,864.61,140.0,-175.0,-17.5
974,-3.9,-19.03,874.01,122.5,-157.5,-17.5
1004,-4.03,-19.28,882.79,105.0,-175.0,-17.5
1033,-4.15,-19.52,891.21,105.0,-175.0,-35.0
1063,-4.15,-19.76,899.02,122.5,-175.0,-35.0
1092,-4.15,-19.89,906.22,122.5,-175.0,-35.0
1122,-4.27,-20.01,913.05,122.5,-192.5,-35.0
1152,-4.27,-20.25,919.51,122.5,-175.0,-17.5
1181,-4.39,-20.37,925.49,140.0,-175.0,-35.0
1211,-4.51,-20.5,931.1,105.0,-175.0,-35.0
1240,-4.51,-20.62,936.35,122.5,-175.0,-17.5
1270,-4.64,-20.74,941.35,122.5,-192.5,-35.0
1299,-4.64,-20.86,945.99,122.5,-175.0,-35.0
1329,-4.64,-20.98,950.38,140.0,-175.0,-35.0
1358,-4.64,-20.98,954.41,140.0,-175.0,-35.0
1388,-4.64,-21.23,958.31,122.5,-175.0,-17.5
1417,-4.64,-21.23,961.85,157.5,-175.0,-17.5
1447,-4.76,-21.23,965.26,175.0,-175.0,-35.0
1476,-4.76,-21.47,968.44,140.0,-175.0,-35.0
1506,-4.76,-21.47,971.36,122.5,-192.5,-35.0
1535,-4.88,-21.47,974.17,105.0,-192.5,-35.0
1565,-4.88,-21.47,976.73,105.0,-192.5,-35.0
1595,-4.88,-21.59,979.29,105.0,-175.0,-35.0
1625,-4.88,-21.59,981.61,105.0,-175.0,-17.5
1655,-5.0,-21.72,983.69,122.5,-157.5,-35.0
1684,-5.0,-21.72,985.64,122.5,-192.5,-35.0
1714,-5.0,-21.84,987.59,105.0,-175.0,-17.5
1743,-5.0,-21.84,989.42,122.5,-175.0,-17.5
1773,-5.0,-21.84,991.01,122.5,-175.0,-35.0
1802,-5.0,-21.84,992.59,122.5,-175.0,-17.5
1832,-5.0,-21.96,994.06,122.5,-157.5,-35.0
1861,-5.0,-21.96,995.4,87.5,-192.5,-35.0
1891,-5.12,-21.96,996.74,87.5,-175.0,-35.0
1920,-5.12,-21.96,997.96,105.0,-157.5,-35.0
1950,-5.12,-22.08,999.18,105.0,-175.0,-35.0
1979,-5.12,-22.08,1000.16,87.5,-175.0,0.0
2009,-5.12,-22.08,1001.13,105.0,-175.0,-17.5
2038,-5.12,-22.08,1002.11,122.5,-175.0,-17.5
2068,-5.12,-22.2,1002.96,105.0,-175.0,-17.5
2097,-5.12,-22.2,1003.82,122.5,-175.0,-17.5
2126,-5.12,-22.2,1004.55,87.5,-192.5,-35.0
2156,-5.12,-22.2,1005.28,87.5,-192.5,-35.0
2185,-5.12,-22.2,1006.01,87.5,-175.0,-35.0
2215,-5.25,-22.33,1006.62,122.5,-157.5,-35.0
2244,-5.12,-22.33,1007.23,140.0,-175.0,-35.0
2274,-5.12,-22.33,1007.72,140.0,-192.5,-17.5
2303,-5.12,-22.33,1008.21,122.5,-175.0,-35.0
2333,-5.12,-22.33,1008.7,105.0,-175.0,-17.5
2362,-5.25,-22.33,1009.18,105.0,-175.0,-17.5
2392,-5.25,-22.33,1009.67,122.5,-175.0,-17.5
2421,-5.25,-22.33,1010.04,122.5,-192.5,-17.5
2451,-5.25,-22.33,1010.4,122.5,-192.5,-17.5
2480,-5.25,-22.33,1010.77,122.5,-175.0,-35.0
2510,-5.25,-22.33,1011.01,122.5,-175.0,-35.0
2539,-5.25,-22.33,1011.38,105.0,-175.0,-35.0
2568,-5.25,-22.33,1011.62,105.0,-175.0,-17.5
2598,-5.25,-22.33,1011.87,105.0,-192.5,-35.0
2627,-5.25,-22.33,1012.11,122.5,-175.0,-35.0
2657,-5.37,-22.45,1012.36,140.0,-175.0,-52.5
2686,-5.37,-22.45,1012.6,140.0,-157.5,-35.0
2716,-5.37,-22.45,1012.84,122.5,-157.5,-35.0
2745,-5.37,-22.45,1012.97,122.5,-175.0,-17.5
2775,-5.37,-22.45,1013.21,140.0,-175.0,-17.5
2804,-5.25,-22.45,1013.33,140.0,-175.0,-35.0
2834,-5.25,-22.45,1013.58,140.0,-175.0,-35.0
2863,-5.37,-22.45,1013.7,122.5,-175.0,-17.5
2893,-5.37,-22.45,1013.82,122.5,-175.0,-17.5
2922,-5.37,-22.45,1013.94,122.5,-175.0,-35.0
2952,-5.25,-22.45,1014.06,105.0,-192.5,-35.0
2981,-5.25,-22.45,1014.19,122.5,-192.5,-35.0
3010,-5.25,-22.45,1014.19,105.0,-192.5,-35.0
3040,-5.37,-22.45,1014.31,122.5,-175.0,-35.0
3069,-5.37,-22.45,1014.43,122.5,-175.0,-35.0
3099,-5.25,-22.45,1014.55,105.0,-175.0,-35.0
3128,-5.25,-22.45,1014.67,122.5,-175.0,-35.0
3158,-5.25,-22.45,1014.8,105.0,-175.0,-35.0
3187,-5.25,-22.45,1014.8,105.0,-175.0,-35.0
3217,-5.37,-22.45,1014.92,122.5,-157.5,-35.0
3246,-5.37,-22.45,1015.04,105.0,-175.0,-35.0
3276,-5.37,-22.57,1015.04,122.5,-157.5,-35.0
3305,-5.37,-22.57,1015.16,122.5,-192.5,-17.5
3335,-5.37,-22.45,1015.16,122.5,-175.0,-35.0
3364,-5.37,-22.45,1015.28,105.0,-175.0,-17.5
3394,-5.37,-22.57,1015.28,122.5,-192.5,-35.0
3423,-5.37,-22.57,1015.28,122.5,-192.5,-17.5
3452,-5.37,-22.57,1015.41,122.5,-192.5,-17.5
3482,-5.37,-22.45,1015.41,122.5,-175.0,-17.5
3511,-5.37,-22.45,1015.53,140.0,-192.5,-35.0
3541,-5.37,-22.45,1015.53,105.0,-192.5,-17.5
3570,-5.37,-22.57,1015.53,122.5,-192.5,-17.5
3600,-5.37,-22.57,1015.53,122.5,-175.0,-17.5
3629,-5.37,-22.45,1015.53,122.5,-175.0,-35.0
3659,-5.37,-22.57,1015.53,122.5,-192.5,-17.5
3688,-5.37,-22.45,1015.53,122.5,-175.0,-35.0
3718,-5.37,-22.57,1015.53,140.0,-175.0,-17.5
3747,-5.37,-22.57,1015.53,122.5,-175.0,-17.5
3777,-5.37,-22.45,1015.53,140.0,-157.5,-35.0
3806,-5.37,-22.57,1015.53,140.0,-192.5,-17.5
3836,-5.37,-22.57,1015.53,122.5,-192.5,-35.0
3865,-5.37,-22.57,1015.53,122.5,-192.5,-52.5
3895,-5.37,-22.57,1015.53,105.0,-175.0,-35.0
3924,-5.37,-22.57,1015.53,105.0,-157.5,-35.0
3953,-5.37,-22.57,1015.53,140.0,-175.0,-35.0
3983,-5.37,-22.57,1015.53,122.5,-175.0,-35.0
4012,-5.25,-22.57,1015.53,105.0,-175.0,-35.0
4042,-5.37,-22.57,1015.53,105.0,-157.5,-35.0
4071,-5.25,-22.57,1015.53,122.5,-192.5,-35.0
4101,-5.25,-22.57,1015.53,122.5,-175.0,-35.0
4130,-5.25,-22.57,1015.53,105.0,-192.5,-35.0
4160,-5.25,-22.45,1015.53,105.0,-175.0,-17.5
4189,-5.25,-22.57,1015.65,122.5,-192.5,-35.0
4219,-5.25,-22.57,1015.65,140.0,-175.0,-35.0
4248,-5.25,-22.45,1015.65,140.0,-157.5,-35.0
4278,-5.25,-22.45,1015.65,122.5,-175.0,-35.0
4307,-5.25,-22.45,1015.65,122.5,-175.0,-35.0
4337,-5.25,-22.45,1015.65,122.5,-192.5,-35.0
4366,-5.25,-22.57,1015.65,122.5,-192.5,-35.0
4395,-5.12,-22.57,1015.65,140.0,-175.0,-17.5
4425,-5.25,-22.57,1015.65,122.5,-175.0,-17.5
4454,-5.25,-22.57,1015.53,105.0,-175.0,-35.0
4484,-5.25,-22.57,1015.53,105.0,-175.0,-35.0
4513,-5.25,-22.57,1015.53,140.0,-175.0,-17.5
4543,-5.25,-22.57,1015.53,140.0,-175.0,-17.5
4572,-5.25,-22.57,1015.53,140.0,-175.0,-17.5
4602,-5.25,-22.57,1015.53,122.5,-192.5,-35.0
4631,-5.25,-22.57,1015.53,122.5,-175.0,-35.0
4661,-5.25,-22.57,1015.65,122.5,-175.0,-35.0
4690,-5.25,-22.57,1015.65,105.0,-192.5,-35.0
4720,-5.25,-22.45,1015.65,122.5,-157.5,-35.0
4749,-5.25,-22.57,1015.65,122.5,-175.0,-35.0
4779,-5.37,-22.45,1015.65,122.5,-175.0,-17.5
4808,-5.37,-22.45,1015.65,140.0,-175.0,-17.5
4838,-5.37,-22.45,1015.65,105.0,-175.0,-35.0
4867,-5.37,-22.57,1015.77,122.5,-175.0,-17.5
4896,-5.37,-22.57,1015.65,122.5,-157.5,-17.5
4926,-5.37,-22.45,1015.65,140.0,-157.5,-17.5
4955,-5.37,-22.45,1015.65,122.5,-192.5,-17.5
4985,-5.37,-22.45,1015.65,87.5,-175.0,-17.5
5014,-5.37,-22.57,1015.65,87.5,-175.0,-17.5
5044,-5.37,-22.45,1015.65,105.0,-175.0,-35.0
5073,-5.25,-22.57,1015.53,122.5,-175.0,-35.0
5103,-5.25,-22.45,1015.53,105.0,-192.5,-35.0
5132,-5.25,-22.45,1015.53,122.5,-175.0,-17.5
5162,-5.12,-22.57,1015.53,122.5,-192.5,-17.5
5191,-5.25,-22.57,1015.53,122.5,-175.0,-35.0
5221,-5.25,-22.57,1015.53,122.5,-175.0,-35.0
5250,-5.25,-22.57,1015.53,122.5,-175.0,-35.0
5280,-5.25,-22.45,1015.53,122.5,-175.0,-35.0
5309,-5.25,-22.57,1015.53,122.5,-175.0,-35.0
5339,-5.25,-22.57,1015.53,122.5,-175.0,-35.0
5368,-5.25,-22.57,1015.53,122.5,-175.0,-35.0
5398,-5.12,-22.57,1015.53,122.5,-175.0,-17.5
5428,-5.25,-22.57,1015.53,122.5,-175.0,-17.5
5457,-5.25,-22.57,1015.53,105.0,-175.0,-17.5
5487,-5.25,-22.57,1015.53,122.5,-175.0,-17.5
5516,-5.25,-22.57,1015.53,122.5,-192.5,-35.0
5546,-5.25,-22.57,1015.53,122.5,-175.0,-35.0
5575,-5.25,-22.57,1015.65,122.5,-175.0,-17.5
5605,-5.25,-22.57,1015.65,105.0,-175.0,-35.0
5634,-5.25,-22.57,1015.53,87.5,-175.0,-35.0
5664,-5.25,-22.57,1015.53,105.0,-192.5,-52.5
5693,-5.37,-22.57,1015.53,122.5,-192.5,-52.5
5723,-5.37,-22.57,1015.41,122.5,-175.0,-35.0
5752,-5.25,-22.57,1015.41,122.5,-192.5,-35.0
5782,-5.25,-22.69,1015.41,140.0,-192.5,-17.5
5811,-5.25,-22.69,1015.41,122.5,-192.5,-17.5
5841,-5.25,-22.69,1015.28,105.0,-175.0,-52.5
5870,-5.25,-22.69,1015.28,122.5,-175.0,-35.0
5900,-5.25,-22.69,1015.28,122.5,-175.0,-35.0
5930,-5.25,-22.57,1015.28,122.5,-175.0,-35.0
5959,-5.25,-22.57,1015.28,122.5,-192.5,-35.0
5989,-5.25,-22.57,1015.28,122.5,-192.5,-52.5
6018,-5.25,-22.57,1015.28,140.0,-192.5,-35.0
6048,-5.25,-22.57,1015.28,105.0,-175.0,-17.5
6077,-5.37,-22.57,1015.28,105.0,-175.0,-17.5
6107,-5.37,-22.69,1015.16,105.0,-175.0,-35.0
6136,-5.37,-22.69,1015.16,105.0,-175.0,-17.5
6166,-5.37,-22.69,1015.16,105.0,-192.5,-17.5
6195,-5.37,-22.69,1015.04,122.5,-175.0,-35.0
6225,-5.37,-22.69,1015.04,122.5,-175.0,-17.5
6254,-5.37,-22.69,1015.04,122.5,-175.0,-17.5
6284,-5.37,-22.69,1015.04,122.5,-175.0,-35.0
6313,-5.37,-22.69,1015.04,122.5,-157.5,-17.5
6343,-5.37,-22.69,1015.04,122.5,-175.0,-17.5
6372,-5.37,-22.69,1015.04,122.5,-157.5,-35.0
6402,-5.37,-22.69,1015.04,140.0,-175.0,-35.0
6432,-5.25,-22.69,1015.04,122.5,-175.0,-17.5
6461,-5.25,-22.69,1015.04,105.0,-175.0,-35.0
6491,-5.25,-22.69,1015.16,122.5,-175.0,-35.0
6520,-5.25,-22.69,1015.16,122.5,-175.0,-17.5
6550,-5.25,-22.69,1015.16,140.0,-175.0,-17.5
6579,-5.25,-22.69,1015.28,140.0,-157.5,-17.5
6609,-5.25,-22.69,1015.28,122.5,-175.0,-17.5
6638,-5.25,-22.69,1015.28,122.5,-175.0,-35.0
6668,-5.25,-22.69,1015.28,105.0,-175.0,-17.5
6697,-5.25,-22.69,1015.28,122.5,-175.0,-17.5
6727,-5.37,-22.69,1015.28,87.5,-175.0,-35.0
6756,-5.25,-22.69,1015.28,140.0,-175.0,-35.0
6786,-5.25,-22.69,1015.28,122.5,-192.5,-35.0
6815,-5.25,-22.69,1015.28,105.0,-175.0,-35.0
6845,-5.25,-22.69,1015.28,122.5,-175.0,-35.0
6874,-5.12,-22.69,1015.28,122.5,-175.0,-35.0
6903,-5.25,-22.69,1015.28,105.0,-175.0,-35.0
6933,-5.25,-22.69,1015.28,122.5,-192.5,-35.0
6962,-5.25,-22.69,1015.28,122.5,-192.5,-35.0
6992,-5.25,-22.69,1015.28,122.5,-175.0,-17.5
7021,-5.25,-22.69,1015.28,105.0,-157.5,-17.5
7051,-5.25,-22.69,1015.28,105.0,-157.5,-17.5
7080,-5.25,-22.69,1015.28,122.5,-175.0,-35.0
7110,-5.25,-22.69,1015.28,105.0,-175.0,-35.0
7139,-5.25,-22.69,1015.28,122.5,-192.5,-35.0
7169,-5.25,-22.69,1015.28,122.5,-192.5,-35.0
7198,-5.25,-22.69,1015.28,140.0,-175.0,-35.0
7228,-5.12,-22.69,1015.28,105.0,-175.0,-35.0
7257,-5.25,-22.69,1015.28,122.5,-175.0,-35.0
7287,-5.12,-22.69,1015.16,122.5,-157.5,-35.0
7316,-5.12,-22.69,1015.16,122.5,-175.0,-17.5
7345,-5.12,-22.69,1015.28,122.5,-192.5,-17.5
7375,-5.25,-22.69,1015.16,140.0,-175.0,-17.5
7404,-5.25,-22.69,1015.16,122.5,-157.5,-17.5
7434,-5.25,-22.69,1015.04,105.0,-175.0,-17.5
7463,-5.25,-22.69,1015.04,122.5,-175.0,-17.5
7493,-5.25,-22.69,1015.04,122.5,-192.5,0.0
7522,-5.12,-22.69,1015.04,122.5,-175.0,-35.0
7552,-5.25,-22.69,1015.04,122.5,-192.5,-35.0
7581,-5.12,-22.69,1015.04,105.0,-192.5,-35.0
7611,-5.25,-22.69,1015.04,122.5,-175.0,-17.5
7640,-5.25,-22.69,1015.04,122.5,-192.5,-17.5
7670,-5.12,-22.69,1015.04,140.0,-175.0,-17.5
7699,-5.25,-22.69,1015.04,122.5,-175.0,-35.0
7729,-5.25,-22.69,1015.04,122.5,-157.5,-35.0
7758,-5.25,-22.69,1015.04,105.0,-175.0,-17.5
7788,-5.25,-22.69,1015.04,122.5,-192.5,-17.5
7817,-5.12,-22.69,1015.04,122.5,-175.0,-17.5
7846,-5.12,-22.69,1015.04,122.5,-157.5,-35.0
7876,-5.25,-22.69,1015.04,122.5,-192.5,-35.0
7905,-5.25,-22.69,1015.04,122.5,-175.0,-35.0
7935,-5.25,-22.69,1014.92,105.0,-175.0,-35.0
7964,-5.25,-22.69,1014.92,122.5,-175.0,-35.0
7994,-5.25,-22.69,1014.92,140.0,-175.0,-17.5
8023,-5.12,-22.69,1014.92,140.0,-175.0,-35.0
8053,-5.12,-22.69,1014.92,122.5,-157.5,-35.0
8082,-5.12,-22.69,1014.8,122.5,-192.5,-17.5
8112,-5.12,-22.69,1014.8,122.5,-175.0,-35.0
8141,-5.25,-22.69,1014.8,140.0,-175.0,-35.0
8171,-5.25,-22.69,1014.8,122.5,-175.0,-35.0
8200,-5.25,-22.69,1014.8,122.5,-175.0,-17.5
8230,-5.25,-22.69,1014.67,157.5,-175.0,-35.0
8260,-5.12,-22.69,1014.67,122.5,-157.5,-35.0
8289,-5.12,-22.69,1014.67,105.0,-192.5,-35.0
8319,-5.25,-22.69,1014.8,87.5,-175.0,-52.5
8348,-5.25,-22.69,1014.8,105.0,-175.0,-17.5
8378,-5.25,-22.69,1014.67,140.0,-175.0,-17.5
8407,-5.25,-22.69,1014.67,122.5,-157.5,-17.5
8437,-5.25,-22.69,1014.67,105.0,-175.0,-17.5
8466,-5.25,-22.69,1014.67,122.5,-175.0,-35.0
8496,-5.25,-22.69,1014.67,122.5,-192.5,-35.0
8525,-5.25,-22.69,1014.67,122.5,-175.0,-35.0
8555,-5.25,-22.69,1014.67,105.0,-175.0,-17.5
8584,-5.25,-22.69,1014.67,105.0,-175.0,-17.5
8614,-5.12,-22.69,1014.67,122.5,-175.0,-17.5
8643,-5.12,-22.69,1014.67,140.0,-175.0,-17.5
8673,-5.12,-22.69,1014.8,122.5,-210.0,-35.0
8703,-5.25,-22.69,1014.8,122.5,-175.0,-35.0
8732,-5.25,-22.69,1014.8,122.5,-192.5,-35.0
8762,-5.25,-22.69,1014.8,105.0,-175.0,-17.5
8791,-5.25,-22.69,1014.67,105.0,-175.0,-17.5
8821,-5.25,-22.69,1014.67,105.0,-175.0,-35.0
8850,-5.25,-22.69,1014.55,122.5,-175.0,-35.0
8880,-5.25,-22.69,1014.55,122.5,-175.0,-35.0
8909,-5.25,-22.69,1014.43,105.0,-175.0,-35.0
8939,-5.25,-22.69,1014.43,105.0,-175.0,-35.0
8968,-5.37,-22.69,1014.55,105.0,-192.5,-35.0
8998,-5.25,-22.69,1014.55,122.5,-175.0,-52.5
9027,-5.25,-22.69,1014.55,122.5,-175.0,-17.5
9057,-5.25,-22.69,1014.55,122.5,-175.0,-17.5
9086,-5.25,-22.69,1014.55,122.5,-175.0,-35.0
9115,-5.25,-22.69,1014.55,122.5,-175.0,-35.0
9145,-5.25,-22.69,1014.55,122.5,-175.0,-35.0
9174,-5.25,-22.69,1014.55,122.5,-157.5,-35.0
9204,-5.25,-22.69,1014.55,105.0,-175.0,-35.0
9233,-5.25,-22.69,1014.55,122.5,-157.5,-35.0
9263,-5.25,-22.69,1014.67,105.0,-157.5,-35.0
9292,-5.25,-22.69,1014.67,105.0,-175.0,-35.0
9322,-5.12,-22.69,1014.67,122.5,-192.5,-35.0
9351,-5.12,-22.69,1014.67,122.5,-175.0,-35.0
9381,-5.12,-22.69,1014.8,122.5,-175.0,-17.5
9410,-5.12,-22.69,1014.67,140.0,-192.5,-17.5
9440,-5.12,-22.69,1014.67,122.5,-175.0,-35.0
9469,-5.25,-22.69,1014.8,122.5,-157.5,-35.0
9499,-5.25,-22.69,1014.8,122.5,-192.5,-35.0
9528,-5.12,-22.69,1014.8,105.0,-175.0,-35.0
9557,-5.12,-22.69,1014.8,105.0,-175.0,-35.0
9587,-5.25,-22.69,1014.8,122.5,-175.0,-35.0
9616,-5.12,-22.69,1014.8,122.5,-175.0,-35.0
9646,-5.25,-22.69,1014.8,122.5,-157.5,-35.0
9675,-5.25,-22.69,1014.92,105.0,-175.0,-17.5
9705,-5.25,-22.69,1014.92,122.5,-175.0,-35.0
9734,-5.12,-22.69,1014.92,105.0,-175.0,-35.0
9764,-5.25,-22.69,1015.04,140.0,-175.0,-35.0
9793,-5.25,-22.69,1015.04,122.5,-175.0,-35.0
9823,-5.12,-22.69,1015.04,122.5,-175.0,-52.5
9852,-5.25,-22.69,1015.04,122.5,-175.0,-35.0
9882,-5.25,-22.69,1015.04,105.0,-175.0,-35.0
9911,-5.25,-22.69,1015.04,140.0,-175.0,-17.5
9941,-5.25,-22.69,1015.04,122.5,-192.5,-17.5
9970,-5.25,-22.69,1015.04,122.5,-192.5,-35.0
10000,-5.25,-22.69,1015.04,122.5,-175.0,-35.0
10029,-5.25,-22.69,1015.04,140.0,-175.0,-35.0
10058,-5.25,-22.69,1015.04,122.5,-175.0,-17.5
10087,-5.37,-22.69,1015.04,105.0,-192.5,-17.5
10116,-5.37,-22.69,1015.04,105.0,-175.0,-17.5
10146,-5.25,-22.69,1015.04,105.0,-175.0,-35.0
10175,-5.37,-22.69,1014.92,122.5,-175.0,-35.0
10205,-5.37,-22.69,1014.92,122.5,-192.5,-17.5
10234,-5.37,-22.69,1014.92,122.5,-175.0,-35.0
10264,-5.37,-22.69,1014.92,122.5,-175.0,-35.0
10293,-5.37,-22.69,1014.8,122.5,-175.0,-35.0
10323,-5.37,-22.69,1014.8,122.5,-175.0,-35.0
10352,-5.37,-22.69,1014.8,122.5,-157.5,-35.0
10382,-5.37,-22.69,1014.8,122.5,-157.5,-35.0
10411,-5.37,-22.81,1014.8,122.5,-192.5,-35.0
10441,-5.25,-22.69,1014.8,105.0,-175.0,-35.0
10470,-5.37,-22.81,1014.8,122.5,-192.5,-35.0
10499,-5.25,-22.81,1014.8,140.0,-175.0,-17.5
10528,-5.37,-22.81,1014.8,105.0,-175.0,-35.0
10557,-5.25,-22.69,1014.8,122.5,-175.0,-35.0
10586,-5.37,-22.81,1014.8,122.5,-157.5,-35.0
10615,-5.25,-22.81,1014.8,122.5,-192.5,-35.0
10645,-5.25,-22.69,1014.8,122.5,-192.5,-35.0
10674,-5.25,-22.69,1014.8,122.5,-175.0,-17.5
10704,-5.37,-22.81,1014.8,122.5,-175.0,-17.5
10733,-5.37,-22.69,1014.8,122.5,-192.5,-35.0
10763,-5.25,-22.69,1014.92,105.0,-175.0,-35.0
10792,-5.37,-22.69,1014.92,105.0,-192.5,-35.0
10822,-5.25,-22.69,1014.92,122.5,-192.5,-35.0
10851,-5.37,-22.69,1014.92,122.5,-175.0,-35.0
10881,-5.37,-22.69,1014.92,105.0,-175.0,-17.5
10910,-5.25,-22.69,1014.92,122.5,-175.0,-35.0
10940,-5.37,-22.69,1014.92,105.0,-192.5,-35.0
10969,-5.37,-22.69,1015.04,122.5,-175.0,-35.0
10998,-5.37,-22.69,1015.04,122.5,-192.5,-35.0
11027,-5.37,-22.69,1015.04,122.5,-175.0,-17.5
11056,-5.37,-22.81,1015.04,105.0,-175.0,-35.0
11085,-5.37,-22.69,1015.04,105.0,-175.0,-35.0
11114,-5.37,-22.81,1015.04,122.5,-192.5,-35.0
11144,-5.37,-22.69,1015.04,140.0,-175.0,-35.0
11173,-5.37,-22.69,1015.04,122.5,-192.5,-17.5
11203,-5.25,-22.69,1015.04,105.0,-175.0,-35.0
11232,-5.37,-22.69,1015.04,140.0,-175.0,-35.0
11262,-5.37,-22.69,1015.04,122.5,-157.5,-35.0
11291,-5.25,-22.69,1015.04,105.0,-175.0,-35.0
11321,-5.25,-22.69,1015.04,122.5,-192.5,-17.5
11350,-5.25,-22.69,1015.04,122.5,-175.0,-52.5
11380,-5.25,-22.69,1015.04,140.0,-157.5,-35.0
11409,-5.25,-22.69,1015.04,105.0,-157.5,-35.0
11439,-5.25,-22.69,1015.04,140.0,-175.0,-17.5
11468,-5.25,-22.69,1015.04,122.5,-192.5,-35.0
11498,-5.25,-22.69,1015.04,122.5,-192.5,-17.5
11527,-5.25,-22.69,1015.04,122.5,-175.0,-17.5
11556,-5.37,-22.69,1015.04,140.0,-175.0,-35.0
11585,-5.37,-22.69,1015.04,122.5,-192.5,-17.5
11614,-5.37,-22.69,1015.04,122.5,-192.5,-35.0
11644,-5.37,-22.69,1015.04,122.5,-175.0,-35.0
11673,-5.37,-22.69,1015.04,122.5,-175.0,-35.0
11703,-5.37,-22.69,1015.04,122.5,-175.0,-52.5
11732,-5.37,-22.69,1015.04,105.0,-175.0,-35.0
11762,-5.37,-22.69,1015.04,122.5,-175.0,-35.0
11791,-5.37,-22.69,1015.04,105.0,-175.0,-17.5
11821,-5.37,-22.69,1015.04,105.0,-175.0,-17.5
11850,-5.25,-22.69,1015.04,122.5,-175.0,-17.5
11880,-5.25,-22.69,1015.04,87.5,-175.0,-17.5
11909,-5.25,-22.69,1015.04,122.5,-157.5,-35.0
11939,-5.25,-22.69,1015.04,122.5,-175.0,-35.0
11968,-5.25,-22.69,1015.04,122.5,-192.5,-35.0
11997,-5.25,-22.69,1015.04,140.0,-175.0,-35.0
12026,-5.25,-22.69,1015.04,122.5,-175.0,-17.5
12055,-5.25,-22.69,1014.92,122.5,-192.5,-17.5
12084,-5.37,-22.69,1015.04,122.5,-175.0,-17.5
12113,-5.25,-22.69,1015.04,122.5,-175.0,-35.0
12143,-5.25,-22.57,1015.04,122.5,-175.0,-35.0
12172,-5.25,-22.69,1015.04,122.5,-175.0,-35.0
12202,-5.25,-22.69,1015.04,122.5,-192.5,-35.0
12231,-5.25,-22.57,1015.04,122.5,-157.5,-35.0
12261,-5.25,-22.57,1015.04,122.5,-192.5,-35.0
12290,-5.37,-22.57,1015.04,105.0,-175.0,-35.0
12320,-5.25,-22.57,1015.04,122.5,-192.5,-17.5
12349,-5.25,-22.57,1015.04,122.5,-175.0,-35.0
12379,-5.25,-22.57,1015.04,122.5,-175.0,-35.0
12408,-5.25,-22.57,1015.04,105.0,-175.0,-35.0
12438,-5.37,-22.69,1015.04,105.0,-157.5,-35.0
12467,-5.37,-22.57,1015.04,105.0,-157.5,-17.5
12496,-5.37,-22.57,1015.04,140.0,-192.5,-35.0
12525,-5.37,-22.57,1015.04,122.5,-192.5,-35.0
12554,-5.37,-22.57,1015.04,122.5,-192.5,-35.0
12584,-5.37,-22.57,1015.04,122.5,-175.0,-52.5
12613,-5.37,-22.57,1015.04,140.0,-175.0,-35.0
12643,-5.37,-22.57,1015.04,122.5,-175.0,-52.5
12672,-5.37,-22.69,1015.04,105.0,-192.5,-35.0
12702,-5.37,-22.69,1015.04,105.0,-175.0,-35.0
12731,-5.37,-22.69,1015.04,122.5,-192.5,-35.0
12761,-5.37,-22.69,1015.04,122.5,-192.5,-35.0
12790,-5.37,-22.69,1015.04,105.0,-192.5,-17.5
12820,-5.37,-22.69,1015.04,122.5,-175.0,-17.5
12849,-5.37,-22.69,1014.92,122.5,-175.0,-35.0
12879,-5.37,-22.69,1014.92,122.5,-192.5,-17.5
12908,-5.37,-22.69,1014.92,122.5,-175.0,-35.0
12938,-5.37,-22.69,1014.92,122.5,-157.5,-35.0
12967,-5.37,-22.69,1015.04,122.5,-192.5,-35.0
12996,-5.37,-22.69,1014.92,122.5,-192.5,-35.0
13025,-5.25,-22.69,1014.92,122.5,-192.5,-17.5
13054,-5.25,-22.69,1014.92,105.0,-192.5,-35.0
13084,-5.25,-22.69,1015.04,122.5,-175.0,-17.5
13113,-5.25,-22.69,1015.04,122.5,-175.0,-35.0
13143,-5.25,-22.69,1014.92,105.0,-175.0,-35.0
13172,-5.25,-22.81,1014.92,122.5,-157.5,-35.0
13202,-5.37,-22.69,1014.92,122.5,-192.5,-35.0
13231,-5.37,-22.81,1015.04,140.0,-175.0,-35.0
13261,-5.37,-22.69,1015.04,122.5,-157.5,-17.5
13290,-5.37,-22.69,1015.04,122.5,-157.5,-35.0
13320,-5.37,-22.69,1015.04,140.0,-175.0,-35.0
13349,-5.37,-22.69,1015.04,122.5,-175.0,-17.5
13378,-5.37,-22.69,1015.04,105.0,-157.5,-35.0
13407,-5.37,-22.69,1015.04,122.5,-175.0,-35.0
13436,-5.37,-22.69,1015.04,122.5,-192.5,-17.5
13465,-5.37,-22.69,1015.04,122.5,-175.0,-35.0
13494,-5.37,-22.69,1015.04,122.5,-175.0,-35.0
13524,-5.37,-22.69,1015.04,140.0,-175.0,-35.0
13553,-5.37,-22.69,1015.04,105.0,-175.0,-35.0
13583,-5.37,-22.69,1015.04,122.5,-175.0,-17.5
13612,-5.37,-22.69,1015.04,105.0,-175.0,-35.0
13642,-5.37,-22.69,1015.04,105.0,-175.0,-35.0
13671,-5.37,-22.69,1015.04,105.0,-175.0,-35.0
13701,-5.37,-22.69,1015.04,122.5,-175.0,0.0
13730,-5.37,-22.69,1015.04,122.5,-157.5,-35.0
13760,-5.37,-22.69,1015.04,122.5,-175.0,-17.5
13789,-5.37,-22.69,1015.16,122.5,-175.0,-17.5
13819,-5.37,-22.69,1015.16,122.5,-175.0,-17.5
13848,-5.37,-22.69,1015.16,105.0,-192.5,-35.0
13877,-5.37,-22.69,1015.28,105.0,-157.5,-35.0
13906,-5.37,-22.69,1015.28,122.5,-175.0,-35.0
13935,-5.37,-22.69,1015.28,122.5,-157.5,-35.0
13965,-5.37,-22.69,1015.28,105.0,-175.0,-35.0
13994,-5.37,-22.69,1015.16,105.0,-175.0,-35.0
14024,-5.37,-22.69,1015.16,105.0,-192.5,-17.5
14053,-5.37,-22.69,1015.16,122.5,-175.0,-17.5
14083,-5.37,-22.69,1015.16,122.5,-157.5,-35.0
14112,-5.37,-22.57,1015.16,122.5,-175.0,-17.5
14142,-5.37,-22.69,1015.16,122.5,-175.0,-35.0
14171,-5.37,-22.57,1015.28,122.5,-175.0,-35.0
14201,-5.37,-22.57,1015.28,122.5,-175.0,-17.5
14230,-5.37,-22.69,1015.16,140.0,-157.5,-35.0
14260,-5.25,-22.69,1015.16,122.5,-192.5,-35.0
14289,-5.25,-22.69,1015.16,122.5,-192.5,-52.5
14318,-5.37,-22.69,1015.16,140.0,-175.0,-17.5
14347,-5.37,-22.69,1015.16,122.5,-175.0,-35.0
14376,-5.25,-22.69,1015.04,140.0,-175.0,-35.0
14406,-5.25,-22.69,1015.04,105.0,-157.5,-35.0
14435,-5.37,-22.69,1015.04,122.5,-175.0,-35.0
14465,-5.37,-22.69,1015.04,122.5,-175.0,-35.0
14494,-5.37,-22.69,1015.04,122.5,-175.0,-35.0
14524,-5.37,-22.57,1015.04,140.0,-157.5,-35.0
14553,-5.25,-22.57,1015.04,122.5,-175.0,-35.0
14583,-5.25,-22.57,1015.04,105.0,-175.0,-17.5
14612,-5.25,-22.57,1015.04,105.0,-175.0,-17.5
14642,-5.37,-22.45,1015.04,122.5,-192.5,-17.5
14671,-5.37,-22.57,1015.04,140.0,-192.5,-35.0
14701,-5.25,-22.57,1015.04,140.0,-175.0,-35.0
14730,-5.25,-22.57,1015.16,122.5,-175.0,-35.0
14759,-5.37,-22.57,1015.16,122.5,-175.0,-35.0
14788,-5.37,-22.57,1015.16,122.5,-175.0,-17.5
14817,-5.37,-22.57,1015.16,122.5,-175.0,-35.0
14847,-5.37,-22.57,1015.16,105.0,-175.0,-17.5
14876,-5.37,-22.57,1015.28,87.5,-192.5,-35.0
14906,-5.37,-22.57,1015.16,105.0,-157.5,-35.0
14935,-5.37,-22.57,1015.16,122.5,-175.0,-17.5
14965,-5.37,-22.57,1015.16,122.5,-175.0,-17.5
14994,-5.37,-22.57,1015.16,105.0,-157.5,-35.0
15024,-5.37,-22.69,1015.16,122.5,-175.0,-35.0
15053,-5.37,-22.57,1015.16,122.5,-175.0,-17.5
15083,-5.37,-22.57,1015.16,122.5,-175.0,-35.0
15112,-5.37,-22.57,1015.16,140.0,-175.0,-35.0
15142,-5.37,-22.57,1015.16,105.0,-175.0,-35.0
15171,-5.37,-22.69,1015.16,105.0,-192.5,-35.0
15200,-5.37,-22.57,1015.16,105.0,-175.0,-35.0
15229,-5.37,-22.57,1015.16,105.0,-157.5,-35.0
15258,-5.37,-22.69,1015.16,122.5,-175.0,-35.0
15288,-5.37,-22.57,1015.16,122.5,-175.0,-17.5
15317,-5.37,-22.69,1015.04,122.5,-175.0,-17.5
15347,-5.37,-22.69,1015.04,105.0,-192.5,-35.0
15376,-5.37,-22.69,1014.8,105.0,-192.5,-17.5
15406,-5.37,-22.69,1014.8,105.0,-175.0,-35.0
15435,-5.37,-22.69,1014.8,122.5,-175.0,-35.0
15465,-5.37,-22.69,1014.8,122.5,-175.0,-17.5
15494,-5.37,-22.69,1014.8,122.5,-175.0,-17.5
15524,-5.37,-22.69,1014.8,122.5,-175.0,-35.0
15553,-5.37,-22.69,1014.8,122.5,-175.0,-35.0
15583,-5.37,-22.69,1014.8,122.5,-175.0,-35.0
15612,-5.37,-22.69,1014.92,122.5,-192.5,-35.0
15641,-5.37,-22.69,1014.92,122.5,-175.0,-35.0
15670,-5.37,-22.69,1014.92,105.0,-175.0,-35.0
15699,-5.49,-22.69,1015.04,122.5,-175.0,-35.0
15729,-5.37,-22.69,1015.04,122.5,-175.0,-17.5
15758,-5.49,-22.69,1015.04,122.5,-175.0,-17.5
15788,-5.37,-22.69,1015.04,140.0,-175.0,-52.5
15817,-5.49,-22.69,1015.04,122.5,-175.0,-35.0
15847,-5.37,-22.69,1015.16,140.0,-175.0,-17.5
15876,-5.49,-22.69,1015.16,105.0,-192.5,-35.0
15906,-5.37,-22.57,1015.16,105.0,-192.5,-35.0
15935,-5.37,-22.69,1015.16,122.5,-157.5,-35.0
15965,-5.49,-22.69,1015.28,122.5,-157.5,-17.5
15994,-5.37,-22.69,1015.16,122.5,-192.5,-35.0
16024,-5.49,-22.69,1015.28,122.5,-175.0,-17.5
16053,-5.37,-22.57,1015.16,105.0,-175.0,-35.0
16082,-5.37,-22.57,1015.16,105.0,-175.0,-17.5
16111,-5.37,-22.57,1015.28,105.0,-175.0,-35.0
16140,-5.37,-22.57,1015.28,105.0,-175.0,-17.5
16170,-5.49,-22.57,1015.28,140.0,-175.0,-35.0
16199,-5.37,-22.57,1015.28,140.0,-175.0,-17.5
16229,-5.37,-22.57,1015.16,122.5,-175.0,-17.5
16258,-5.37,-22.69,1015.16,122.5,-175.0,-17.5
16288,-5.37,-22.69,1015.16,105.0,-175.0,-17.5
16317,-5.37,-22.69,1015.16,122.5,-192.5,-35.0
16347,-5.37,-22.69,1015.16,122.5,-175.0,-35.0
16376,-5.37,-22.69,1015.16,122.5,-175.0,-17.5
16406,-5.37,-22.69,1015.16,122.5,-175.0,-35.0
16435,-5.37,-22.69,1015.16,122.5,-157.5,-35.0
16465,-5.37,-22.69,1015.28,122.5,-192.5,-17.5
16494,-5.37,-22.69,1015.28,122.5,-192.5,-35.0
16523,-5.37,-22.69,1015.28,105.0,-192.5,-35.0
16552,-5.37,-22.69,1015.28,105.0,-192.5,-35.0
16581,-5.37,-22.69,1015.28,105.0,-192.5,-17.5
16611,-5.37,-22.69,1015.28,122.5,-175.0,-35.0
16640,-5.37,-22.69,1015.28,122.5,-192.5,-35.0
16670,-5.37,-22.69,1015.28,122.5,-192.5,-35.0
16699,-5.37,-22.69,1015.28,122.5,-192.5,-35.0
16729,-5.37,-22.69,1015.28,122.5,-175.0,-35.0
16758,-5.49,-22.69,1015.28,105.0,-192.5,-35.0
16788,-5.49,-22.69,1015.28,122.5,-175.0,-52.5
16817,-5.37,-22.69,1015.28,122.5,-175.0,-35.0
16847,-5.37,-22.69,1015.28,122.5,-175.0,-17.5
16876,-5.37,-22.69,1015.28,122.5,-175.0,-17.5
16906,-5.37,-22.69,1015.16,122.5,-175.0,-35.0
16935,-5.37,-22.69,1015.28,122.5,-157.5,-35.0
16965,-5.37,-22.69,1015.16,122.5,-175.0,-17.5
16994,-5.37,-22.69,1015.28,122.5,-192.5,-17.5
17023,-5.37,-22.69,1015.16,122.5,-175.0,-35.0
17052,-5.37,-22.69,1015.28,122.5,-175.0,-35.0
17081,-5.37,-22.69,1015.28,122.5,-175.0,-35.0
17111,-5.37,-22.69,1015.16,122.5,-175.0,-35.0
17140,-5.37,-22.69,1015.16,140.0,-175.0,-35.0
17170,-5.37,-22.69,1015.16,140.0,-192.5,-35.0
17199,-5.37,-22.57,1015.16,140.0,-175.0,-35.0
17229,-5.37,-22.57,1015.04,140.0,-192.5,-35.0
17258,-5.37,-22.57,1015.04,122.5,-175.0,-35.0
17288,-5.37,-22.69,1014.92,105.0,-157.5,-17.5
17317,-5.37,-22.69,1014.92,122.5,-192.5,-17.5
17347,-5.37,-22.69,1014.92,122.5,-157.5,-17.5
17376,-5.37,-22.69,1014.8,122.5,-175.0,-35.0
17406,-5.37,-22.69,1014.8,122.5,-175.0,-17.5
17435,-5.37,-22.69,1014.8,105.0,-175.0,-35.0
17464,-5.37,-22.69,1014.8,140.0,-175.0,-35.0
17493,-5.37,-22.69,1014.67,105.0,-175.0,-35.0
17522,-5.37,-22.69,1014.55,105.0,-192.5,-35.0
17551,-5.37,-22.69,1014.55,122.5,-175.0,-17.5
17580,-5.37,-22.81,1014.55,122.5,-175.0,-52.5
17610,-5.37,-22.81,1014.55,122.5,-175.0,-52.5
17639,-5.37,-22.81,1014.43,122.5,-175.0,-35.0
17669,-5.37,-22.81,1014.43,122.5,-192.5,-17.5
17698,-5.37,-22.69,1014.55,122.5,-175.0,-17.5
17728,-5.49,-22.81,1014.55,122.5,-157.5,-17.5
17757,-5.37,-22.69,1014.43,122.5,-157.5,-35.0
17787,-5.49,-22.81,1014.43,122.5,-175.0,-17.5
17816,-5.49,-22.81,1014.43,140.0,-175.0,-17.5
17846,-5.49,-22.69,1014.55,122.5,-175.0,-35.0
17875,-5.37,-22.69,1014.43,122.5,-175.0,-35.0
17905,-5.37,-22.69,1014.43,105.0,-175.0,-35.0
17934,-5.37,-22.69,1014.43,122.5,-157.5,-35.0
17963,-5.37,-22.69,1014.43,122.5,-157.5,-35.0
17992,-5.37,-22.69,1014.43,105.0,-175.0,-17.5
18021,-5.37,-22.69,1014.43,105.0,-175.0,-17.5
18051,-5.37,-22.81,1014.55,122.5,-192.5,-35.0
18080,-5.37,-22.81,1014.55,140.0,-175.0,-35.0
18110,-5.37,-22.69,1014.43,140.0,-192.5,-35.0
18139,-5.37,-22.81,1014.55,122.5,-157.5,-35.0
18169,-5.49,-22.81,1014.55,105.0,-175.0,-35.0
18198,-5.37,-22.69,1014.55,105.0,-157.5,-35.0
18228,-5.49,-22.69,1014.55,105.0,-157.5,-35.0
18257,-5.49,-22.81,1014.55,122.5,-175.0,-35.0
18287,-5.37,-22.69,1014.55,105.0,-175.0,-35.0
18316,-5.37,-22.81,1014.55,122.5,-175.0,-35.0
18346,-5.37,-22.81,1014.55,122.5,-140.0,-17.5
18375,-5.37,-22.69,1014.55,140.0,-175.0,-17.5
18405,-5.37,-22.81,1014.55,122.5,-175.0,-17.5
18434,-5.49,-22.81,1014.55,105.0,-175.0,-35.0
18463,-5.49,-22.81,1014.55,122.5,-175.0,-17.5
18492,-5.49,-22.81,1014.55,105.0,-192.5,-17.5
18521,-5.37,-22.81,1014.55,122.5,-192.5,-35.0
18550,-5.37,-22.69,1014.55,105.0,-175.0,-17.5
18579,-5.37,-22.69,1014.55,105.0,-175.0,-35.0
18609,-5.49,-22.81,1014.55,105.0,-175.0,-17.5
18638,-5.37,-22.81,1014.55,122.5,-175.0,-35.0
18668,-5.37,-22.81,1014.55,122.5,-175.0,-35.0
18697,-5.37,-22.81,1014.55,122.5,-157.5,-35.0
18727,-5.37,-22.81,1014.55,105.0,-175.0,-35.0
18756,-5.37,-22.81,1014.55,105.0,-175.0,-17.5
18786,-5.37,-22.81,1014.55,105.0,-175.0,-35.0
18815,-5.37,-22.81,1014.55,122.5,-175.0,-17.5
18845,-5.37,-22.81,1014.55,122.5,-175.0,-17.5
18874,-5.49,-22.81,1014.55,105.0,-175.0,-17.5
18904,-5.37,-22.81,1014.43,122.5,-175.0,-17.5
18933,-5.37,-22.81,1014.43,105.0,-157.5,-35.0
18962,-5.37,-22.81,1014.43,105.0,-175.0,-35.0
18991,-5.37,-22.81,1014.43,122.5,-157.5,-17.5
19020,-5.37,-22.69,1014.43,140.0,-175.0,-35.0
19049,-5.37,-22.81,1014.43,122.5,-175.0,-35.0
19078,-5.49,-22.69,1014.43,122.5,-157.5,-17.5
19108,-5.37,-22.81,1014.43,105.0,-157.5,-35.0
19137,-5.37,-22.81,1014.31,105.0,-175.0,-35.0
19167,-5.49,-22.81,1014.31,122.5,-192.5,-35.0
19196,-5.49,-22.81,1014.43,122.5,-192.5,-35.0
19226,-5.49,-22.81,1014.43,105.0,-175.0,-35.0
19255,-5.49,-22.81,1014.43,105.0,-192.5,-35.0
19285,-5.49,-22.69,1014.43,140.0,-175.0,-35.0
19314,-5.49,-22.69,1014.55,105.0,-192.5,-35.0
19344,-5.49,-22.81,1014.55,122.5,-175.0,-35.0
19373,-5.49,-22.81,1014.55,140.0,-157.5,-35.0
19403,-5.49,-22.81,1014.55,105.0,-175.0,-17.5
19432,-5.49,-22.81,1014.55,122.5,-175.0,-17.5
19461,-5.49,-22.81,1014.55,122.5,-175.0,-35.0
19490,-5.49,-22.81,1014.67,122.5,-175.0,-35.0
19519,-5.49,-22.69,1014.67,122.5,-175.0,-17.5
19549,-5.49,-22.81,1014.67,122.5,-192.5,-17.5
19578,-5.49,-22.81,1014.67,122.5,-192.5,-35.0
19608,-5.49,-22.81,1014.67,105.0,-175.0,-17.5
19637,-5.49,-22.69,1014.8,122.5,-192.5,-35.0
19667,-5.49,-22.81,1014.8,122.5,-175.0,-35.0
19696,-5.49,-22.81,1014.8,122.5,-157.5,-35.0
19726,-5.49,-22.69,1014.8,122.5,-175.0,-17.5
19755,-5.49,-22.69,1014.8,105.0,-157.5,-52.5
19785,-5.37,-22.69,1014.8,105.0,-192.5,-35.0
19814,-5.37,-22.69,1014.8,105.0,-192.5,-35.0
19844,-5.49,-22.69,1014.92,105.0,-192.5,-35.0
19873,-5.37,-22.69,1014.92,122.5,-175.0,-17.5
19903,-5.37,-22.69,1014.92,105.0,-192.5,-35.0
19932,-5.37,-22.69,1015.04,87.5,-192.5,-35.0
19961,-5.49,-22.69,1014.92,122.5,-192.5,-35.0
19990,-5.37,-22.69,1015.04,122.5,-175.0,-35.0
20019,-5.49,-22.69,1015.04,122.5,-175.0,-17.5
20049,-5.37,-22.69,1015.04,105.0,-175.0,-17.5
20078,-5.37,-22.69,1015.04,105.0,-175.0,-17.5
20108,-5.37,-22.69,1015.04,105.0,-175.0,-17.5
20137,-5.37,-22.69,1015.04,105.0,-175.0,-35.0
20167,-5.37,-22.69,1015.16,140.0,-175.0,-17.5
20196,-5.37,-22.69,1015.16,122.5,-157.5,0.0
20226,-5.37,-22.69,1015.16,122.5,-175.0,-35.0
20255,-5.37,-22.69,1015.16,105.0,-175.0,-52.5
20285,-5.37,-22.69,1015.04,105.0,-175.0,-35.0
20314,-5.37,-22.69,1015.16,105.0,-175.0,-35.0
20344,-5.37,-22.69,1015.16,122.5,-192.5,-17.5
20373,-5.37,-22.69,1015.16,122.5,-192.5,0.0
20402,-5.37,-22.69,1015.28,122.5,-175.0,-17.5
20431,-5.37,-22.69,1015.28,122.5,-175.0,-35.0
20460,-5.37,-22.69,1015.28,122.5,-175.0,-17.5
20490,-5.37,-22.69,1015.28,122.5,-175.0,-35.0
20519,-5.37,-22.69,1015.28,105.0,-175.0,-35.0
20549,-5.37,-22.69,1015.28,105.0,-157.5,-35.0
20578,-5.37,-22.69,1015.28,122.5,-157.5,-52.5
20608,-5.37,-22.69,1015.28,122.5,-157.5,-35.0
20637,-5.37,-22.69,1015.28,122.5,-175.0,-35.0
20667,-5.37,-22.69,1015.28,122.5,-175.0,-17.5
20696,-5.37,-22.69,1015.28,105.0,-175.0,-17.5
20726,-5.37,-22.69,1015.28,105.0,-192.5,-17.5
20755,-5.37,-22.69,1015.41,122.5,-192.5,-17.5
20785,-5.37,-22.69,1015.41,122.5,-175.0,-17.5
20814,-5.37,-22.69,1015.41,122.5,-175.0,-35.0
20843,-5.37,-22.69,1015.41,105.0,-175.0,-35.0
20872,-5.37,-22.69,1015.41,122.5,-175.0,-17.5
20901,-5.37,-22.69,1015.41,105.0,-175.0,-35.0
20931,-5.37,-22.69,1015.41,105.0,-175.0,-35.0
20960,-5.37,-22.69,1015.41,122.5,-175.0,-35.0
20990,-5.37,-22.69,1015.41,105.0,-175.0,-35.0
21019,-5.37,-22.69,1015.41,122.5,-175.0,-35.0
21049,-5.37,-22.69,1015.41,122.5,-175.0,-35.0
21078,-5.37,-22.69,1015.41,122.5,-157.5,-17.5
21108,-5.37,-22.69,1015.41,122.5,-175.0,-17.5
21137,-5.37,-22.69,1015.28,105.0,-175.0,-35.0
21167,-5.37,-22.69,1015.28,105.0,-175.0,-35.0
21196,-5.37,-22.69,1015.28,105.0,-175.0,-35.0
21226,-5.37,-22.69,1015.28,122.5,-175.0,-17.5
21255,-5.37,-22.69,1015.16,122.5,-175.0,-35.0
21285,-5.37,-22.69,1015.28,105.0,-192.5,-35.0
21314,-5.37,-22.69,1015.16,105.0,-192.5,-35.0
21343,-5.37,-22.69,1015.16,105.0,-175.0,-17.5
21372,-5.37,-22.69,1015.28,105.0,-175.0,-35.0
21401,-5.37,-22.69,1015.28,105.0,-175.0,-35.0
21431,-5.37,-22.69,1015.28,105.0,-175.0,-35.0
21460,-5.37,-22.69,1015.28,122.5,-192.5,-52.5
21490,-5.37,-22.69,1015.28,105.0,-175.0,-35.0
21519,-5.37,-22.69,1015.28,122.5,-175.0,-17.5
21549,-5.37,-22.69,1015.28,122.5,-175.0,-35.0
21578,-5.37,-22.69,1015.28,140.0,-192.5,-17.5
21608,-5.37,-22.69,1015.28,122.5,-192.5,-17.5
21637,-5.37,-22.57,1015.28,122.5,-175.0,-17.5
21667,-5.37,-22.57,1015.28,122.5,-157.5,-17.5
21696,-5.37,-22.69,1015.28,122.5,-157.5,-17.5
21726,-5.37,-22.69,1015.28,105.0,-157.5,-17.5
21755,-5.37,-22.57,1015.28,140.0,-175.0,-17.5
21784,-5.37,-22.57,1015.28,122.5,-192.5,-35.0
21813,-5.37,-22.57,1015.41,122.5,-175.0,-17.5
21842,-5.37,-22.57,1015.41,122.5,-175.0,-17.5
21872,-5.37,-22.45,1015.41,105.0,-192.5,-35.0
21901,-5.37,-22.57,1015.41,122.5,-175.0,-52.5
21931,-5.37,-22.57,1015.41,105.0,-175.0,-35.0
21960,-5.37,-22.57,1015.41,122.5,-175.0,-35.0
21990,-5.37,-22.57,1015.41,122.5,-175.0,-35.0
22019,-5.37,-22.57,1015.41,122.5,-192.5,-17.5
22049,-5.37,-22.57,1015.53,140.0,-175.0,-17.5
22078,-5.37,-22.69,1015.53,122.5,-175.0,-17.5
22108,-5.37,-22.69,1015.53,122.5,-157.5,-35.0
22137,-5.37,-22.57,1015.53,122.5,-192.5,-35.0
22167,-5.37,-22.57,1015.53,122.5,-175.0,-17.5
22196,-5.37,-22.57,1015.53,122.5,-192.5,-35.0
22225,-5.37,-22.57,1015.53,140.0,-175.0,-17.5
22254,-5.37,-22.57,1015.53,140.0,-175.0,-35.0
22283,-5.37,-22.57,1015.53,122.5,-175.0,-35.0
22313,-5.37,-22.57,1015.53,140.0,-175.0,-35.0
22342,-5.37,-22.57,1015.53,122.5,-175.0,-17.5
22372,-5.37,-22.57,1015.53,122.5,-175.0,-35.0
22401,-5.37,-22.57,1015.41,122.5,-175.0,-35.0
22431,-5.37,-22.57,1015.41,105.0,-192.5,-35.0
22460,-5.37,-22.57,1015.53,122.5,-192.5,-35.0
22490,-5.37,-22.57,1015.41,122.5,-192.5,-35.0
22519,-5.37,-22.57,1015.41,122.5,-175.0,-35.0
22549,-5.37,-22.57,1015.41,105.0,-192.5,-52.5
22578,-5.37,-22.57,1015.41,122.5,-192.5,-17.5
22608,-5.37,-22.57,1015.28,105.0,-192.5,-17.5
22637,-5.37,-22.57,1015.28,122.5,-175.0,-35.0
22666,-5.37,-22.57,1015.28,122.5,-175.0,-35.0
22695,-5.37,-22.57,1015.28,122.5,-157.5,-35.0
22724,-5.37,-22.57,1015.28,105.0,-175.0,-35.0
22754,-5.37,-22.57,1015.41,105.0,-175.0,-35.0
22783,-5.37,-22.57,1015.41,140.0,-175.0,-17.5
22813,-5.49,-22.57,1015.41,105.0,-175.0,-35.0
22842,-5.49,-22.57,1015.53,105.0,-175.0,-17.5
22872,-5.49,-22.57,1015.53,122.5,-175.0,-35.0
22901,-5.37,-22.57,1015.41,122.5,-175.0,-35.0
22931,-5.49,-22.57,1015.41,105.0,-175.0,-17.5
22960,-5.37,-22.57,1015.41,105.0,-175.0,-35.0
22990,-5.37,-22.69,1015.41,122.5,-175.0,-35.0
23019,-5.49,-22.69,1015.28,122.5,-175.0,-35.0
23049,-5.37,-22.69,1015.28,122.5,-175.0,-17.5
23078,-5.37,-22.69,1015.28,140.0,-175.0,-35.0
23108,-5.37,-22.69,1015.28,122.5,-192.5,-17.5
23137,-5.37,-22.69,1015.28,140.0,-175.0,-17.5
23166,-5.37,-22.69,1015.16,105.0,-192.5,-17.5
23195,-5.37,-22.69,1015.16,122.5,-175.0,0.0
23224,-5.37,-22.69,1015.16,122.5,-175.0,-17.5
23254,-5.37,-22.69,1015.16,122.5,-175.0,-35.0
23283,-5.37,-22.69,1015.16,122.5,-192.5,-35.0
23313,-5.37,-22.69,1015.16,122.5,-192.5,-17.5
23342,-5.37,-22.69,1015.28,122.5,-175.0,-35.0
23372,-5.37,-22.69,1015.16,140.0,-175.0,-17.5
23401,-5.37,-22.69,1015.16,105.0,-175.0,-35.0
23431,-5.37,-22.69,1015.16,122.5,-175.0,-35.0
23460,-5.37,-22.69,1015.16,105.0,-192.5,-35.0
23490,-5.49,-22.69,1015.16,105.0,-175.0,-35.0
23519,-5.37,-22.69,1015.16,105.0,-175.0,-35.0
23549,-5.37,-22.69,1015.16,122.5,-175.0,-17.5
23578,-5.37,-22.81,1015.04,105.0,-175.0,-35.0
23607,-5.37,-22.81,1015.04,122.5,-175.0,-17.5
23636,-5.37,-22.69,1015.04,122.5,-175.0,-17.5
23665,-5.37,-22.69,1015.04,122.5,-175.0,-35.0
23695,-5.37,-22.69,1015.04,122.5,-175.0,-35.0
23724,-5.37,-22.69,1015.04,105.0,-192.5,-17.5
23754,-5.37,-22.81,1015.04,122.5,-175.0,-17.5
23783,-5.37,-22.81,1015.04,122.5,-175.0,-35.0
23813,-5.37,-22.69,1015.04,105.0,-175.0,-17.5
23842,-5.37,-22.69,1015.04,105.0,-175.0,-35.0
23872,-5.37,-22.69,1015.16,122.5,-175.0,-17.5
23901,-5.37,-22.69,1015.16,122.5,-175.0,-35.0
23931,-5.37,-22.69,1015.16,105.0,-192.5,-17.5
23960,-5.37,-22.69,1015.16,122.5,-175.0,-17.5
23990,-5.37,-22.69,1015.16,122.5,-157.5,-35.0
24019,-5.37,-22.69,1015.16,140.0,-175.0,-17.5
24049,-5.37,-22.69,1015.16,140.0,-175.0,-35.0
24078,-5.37,-22.69,1015.16,122.5,-175.0,-35.0
24108,-5.37,-22.69,1015.16,105.0,-192.5,-52.5
24137,-5.37,-22.69,1015.16,122.5,-175.0,-52.5
24166,-5.37,-22.69,1015.16,105.0,-157.5,-35.0
24195,-5.37,-22.69,1015.16,122.5,-175.0,-35.0
24224,-5.37,-22.69,1015.16,105.0,-175.0,-35.0
24254,-5.37,-22.69,1015.16,105.0,-175.0,-35.0
24283,-5.37,-22.69,1015.16,105.0,-175.0,-35.0
24313,-5.37,-22.69,1015.16,122.5,-192.5,-35.0
24342,-5.37,-22.69,1015.16,122.5,-192.5,-35.0
24372,-5.37,-22.69,1015.16,122.5,-175.0,-35.0
24401,-5.37,-22.69,1015.16,140.0,-157.5,-35.0
24431,-5.37,-22.69,1015.16,122.5,-175.0,-35.0
24460,-5.37,-22.69,1015.04,122.5,-175.0,-35.0
24490,-5.37,-22.69,1015.04,122.5,-175.0,-35.0
24519,-5.37,-22.69,1015.04,105.0,-175.0,-17.5
24549,-5.37,-22.69,1015.04,122.5,-157.5,-35.0
24578,-5.37,-22.69,1014.92,122.5,-175.0,-35.0
24608,-5.37,-22.69,1014.92,122.5,-192.5,-17.5
24637,-5.37,-22.69,1014.92,122.5,-175.0,-17.5
24667,-5.37,-22.69,1014.8,122.5,-192.5,-35.0
24696,-5.37,-22.69,1014.8,122.5,-192.5,-17.5
24725,-5.37,-22.69,1014.8,122.5,-192.5,-17.5
24754,-5.37,-22.69,1014.8,122.5,-175.0,-35.0
24783,-5.37,-22.69,1014.8,105.0,-192.5,-35.0
24813,-5.37,-22.69,1014.8,122.5,-175.0,-35.0
24842,-5.37,-22.69,1014.8,122.5,-175.0,-35.0
24872,-5.37,-22.69,1014.8,122.5,-175.0,-35.0
24901,-5.37,-22.69,1014.8,122.5,-175.0,-17.5
24931,-5.37,-22.69,1014.8,122.5,-192.5,-35.0
24960,-5.37,-22.69,1014.8,122.5,-192.5,-17.5
24990,-5.37,-22.69,1014.8,122.5,-175.0,-35.0
25019,-5.37,-22.69,1014.8,105.0,-175.0,-35.0
25049,-5.37,-22.69,1014.8,105.0,-175.0,-35.0
25078,-5.37,-22.69,1014.8,105.0,-175.0,-17.5
25108,-5.37,-22.69,1014.8,122.5,-175.0,-35.0
25137,-5.37,-22.69,1014.8,140.0,-175.0,-35.0
25167,-5.37,-22.69,1014.92,140.0,-175.0,-35.0
25196,-5.37,-22.69,1015.04,122.5,-192.5,-35.0
25225,-5.37,-22.69,1015.04,122.5,-175.0,-17.5
25254,-5.37,-22.69,1015.04,122.5,-175.0,-35.0
25283,-5.37,-22.69,1015.04,122.5,-175.0,-35.0
25313,-5.37,-22.69,1015.04,105.0,-175.0,-35.0
25342,-5.37,-22.69,1015.04,122.5,-175.0,-17.5
25372,-5.37,-22.69,1015.04,87.5,-157.5,-17.5
25401,-5.37,-22.69,1015.04,122.5,-175.0,-17.5
25431,-5.37,-22.69,1015.04,122.5,-175.0,-52.5
25460,-5.37,-22.69,1015.04,105.0,-192.5,-35.0
25490,-5.37,-22.69,1015.04,122.5,-192.5,-35.0
25519,-5.37,-22.69,1015.04,122.5,-175.0,-35.0
25549,-5.37,-22.69,1015.16,105.0,-175.0,-17.5
25578,-5.37,-22.69,1015.28,105.0,-175.0,-17.5
25608,-5.37,-22.69,1015.28,105.0,-175.0,-35.0
25637,-5.37,-22.69,1015.28,122.5,-192.5,-35.0
25667,-5.37,-22.69,1015.28,87.5,-175.0,-35.0
25696,-5.37,-22.57,1015.28,122.5,-157.5,-17.5
25725,-5.37,-22.57,1015.28,122.5,-192.5,-35.0
25754,-5.37,-22.57,1015.28,122.5,-175.0,-35.0
25783,-5.37,-22.57,1015.41,105.0,-175.0,-35.0
25813,-5.37,-22.57,1015.41,105.0,-175.0,-17.5
25842,-5.37,-22.57,1015.41,122.5,-175.0,-17.5
25872,-5.37,-22.57,1015.53,140.0,-175.0,-17.5
25901,-5.37,-22.57,1015.53,122.5,-175.0,-17.5
25931,-5.37,-22.57,1015.53,140.0,-157.5,-35.0
25960,-5.37,-22.57,1015.53,105.0,-192.5,-35.0
25990,-5.37,-22.57,1015.53,140.0,-192.5,-35.0
26019,-5.37,-22.57,1015.65,122.5,-175.0,-35.0
26049,-5.37,-22.57,1015.65,140.0,-175.0,-35.0
26078,-5.37,-22.57,1015.65,122.5,-175.0,-17.5
26108,-5.37,-22.57,1015.65,105.0,-175.0,-35.0
26137,-5.37,-22.57,1015.77,122.5,-175.0,-35.0
26167,-5.37,-22.57,1015.77,105.0,-175.0,-35.0
26196,-5.37,-22.57,1015.77,105.0,-157.5,-17.5
26225,-5.37,-22.57,1015.77,140.0,-175.0,-17.5
26254,-5.37,-22.57,1015.77,122.5,-192.5,-35.0
26283,-5.37,-22.57,1015.77,122.5,-192.5,-35.0
26312,-5.37,-22.57,1015.77,122.5,-175.0,-35.0
26341,-5.37,-22.45,1015.77,105.0,-175.0,-35.0
26371,-5.37,-22.45,1015.77,122.5,-192.5,-17.5
26400,-5.37,-22.45,1015.77,140.0,-175.0,-35.0
26430,-5.37,-22.45,1015.77,122.5,-192.5,-35.0
26459,-5.37,-22.57,1015.77,140.0,-192.5,-35.0
26489,-5.37,-22.57,1015.89,122.5,-175.0,-52.5
26518,-5.37,-22.45,1015.89,122.5,-175.0,-35.0
26548,-5.37,-22.45,1015.89,122.5,-175.0,-17.5
26577,-5.37,-22.57,1016.02,122.5,-157.5,-35.0
26607,-5.37,-22.45,1016.02,122.5,-157.5,-35.0
26636,-5.37,-22.45,1016.02,105.0,-192.5,-35.0
26666,-5.37,-22.45,1016.02,105.0,-175.0,-17.5
26695,-5.37,-22.45,1016.02,122.5,-175.0,-35.0
26724,-5.37,-22.45,1016.02,122.5,-175.0,-17.5
26753,-5.37,-22.45,1016.02,122.5,-175.0,-35.0
26782,-5.37,-22.45,1016.02,122.5,-192.5,-35.0
26811,-5.37,-22.45,1016.02,105.0,-175.0,-35.0
26840,-5.37,-22.45,1016.14,122.5,-192.5,-35.0
26870,-5.37,-22.45,1016.14,140.0,-175.0,-35.0
26899,-5.37,-22.45,1016.02,122.5,-175.0,-35.0
26929,-5.37,-22.45,1016.02,122.5,-157.5,-52.5
26958,-5.37,-22.45,1016.02,105.0,-175.0,-35.0
26988,-5.37,-22.45,1015.89,122.5,-175.0,-35.0
27017,-5.37,-22.45,1015.89,122.5,-192.5,-52.5
27047,-5.37,-22.45,1015.89,122.5,-175.0,-35.0
27076,-5.37,-22.45,1015.89,105.0,-157.5,-17.5
27106,-5.37,-22.45,1015.77,122.5,-175.0,-17.5
27135,-5.37,-22.45,1015.89,122.5,-192.5,-35.0
27165,-5.37,-22.45,1015.89,105.0,-175.0,-35.0
27194,-5.37,-22.45,1015.89,122.5,-175.0,-17.5
27223,-5.37,-22.45,1015.89,122.5,-175.0,-35.0
27252,-5.25,-22.45,1015.89,105.0,-175.0,-35.0
27281,-5.37,-22.57,1015.89,105.0,-192.5,-35.0
27310,-5.37,-22.45,1015.89,122.5,-175.0,-17.5
27339,-5.37,-22.45,1015.77,122.5,-175.0,-35.0
27369,-5.37,-22.45,1015.89,140.0,-175.0,-35.0
27398,-5.37,-22.45,1015.89,122.5,-175.0,-35.0
27428,-5.37,-22.45,1015.89,122.5,-175.0,-17.5
27457,-5.37,-22.45,1015.77,122.5,-175.0,-35.0
27487,-5.37,-22.45,1015.77,122.5,-175.0,-35.0
27516,-5.37,-22.45,1015.77,122.5,-175.0,-17.5
27546,-5.37,-22.45,1015.65,140.0,-175.0,-35.0
27575,-5.37,-22.45,1015.65,122.5,-192.5,-35.0
27605,-5.37,-22.45,1015.65,105.0,-175.0,-35.0
27634,-5.25,-22.45,1015.65,105.0,-157.5,-35.0
27664,-5.25,-22.45,1015.53,122.5,-175.0,-35.0
27693,-5.25,-22.45,1015.53,140.0,-175.0,-35.0
27723,-5.25,-22.45,1015.53,122.5,-175.0,-35.0
27752,-5.25,-22.45,1015.53,122.5,-192.5,-35.0
27781,-5.25,-22.45,1015.53,105.0,-175.0,-17.5
27810,-5.37,-22.45,1015.41,105.0,-192.5,-35.0
27839,-5.37,-22.45,1015.41,122.5,-192.5,-35.0
27869,-5.37,-22.45,1015.41,122.5,-192.5,-17.5
27898,-5.37,-22.45,1015.28,122.5,-192.5,-35.0
27928,-5.37,-22.45,1015.28,105.0,-192.5,-35.0
27957,-5.37,-22.45,1015.28,105.0,-192.5,-35.0
27987,-5.37,-22.45,1015.28,105.0,-192.5,-35.0
28016,-5.37,-22.45,1015.28,122.5,-175.0,-35.0
28046,-5.37,-22.45,1015.28,122.5,-175.0,-17.5
28075,-5.37,-22.45,1015.28,105.0,-175.0,-17.5
28105,-5.37,-22.45,1015.28,122.5,-175.0,-17.5
28134,-5.37,-22.45,1015.28,122.5,-175.0,-35.0
28164,-5.37,-22.57,1015.28,105.0,-157.5,-35.0
28193,-5.37,-22.45,1015.28,122.5,-175.0,-35.0
28223,-5.37,-22.45,1015.28,105.0,-175.0,-35.0
28252,-5.37,-22.45,1015.28,122.5,-175.0,-17.5
28282,-5.37,-22.45,1015.28,140.0,-192.5,-17.5
28311,-5.37,-22.45,1015.28,105.0,-175.0,-17.5
28340,-5.37,-22.45,1015.28,122.5,-175.0,-35.0
28369,-5.37,-22.45,1015.28,122.5,-192.5,-35.0
28398,-5.37,-22.45,1015.28,122.5,-192.5,-35.0
28428,-5.37,-22.45,1015.28,122.5,-192.5,-35.0
28457,-5.37,-22.45,1015.28,122.5,-192.5,-35.0
28487,-5.37,-22.45,1015.28,122.5,-192.5,-17.5
28516,-5.25,-22.45,1015.28,122.5,-175.0,-17.5
28546,-5.37,-22.45,1015.28,122.5,-175.0,-35.0
28575,-5.37,-22.45,1015.28,105.0,-175.0,-35.0
28605,-5.37,-22.57,1015.28,122.5,-175.0,-35.0
28634,-5.37,-22.57,1015.28,105.0,-175.0,-35.0
28664,-5.25,-22.45,1015.28,122.5,-175.0,-35.0
28693,-5.37,-22.45,1015.16,122.5,-157.5,-35.0
28723,-5.37,-22.45,1015.16,122.5,-157.5,-35.0
28752,-5.25,-22.45,1015.16,122.5,-175.0,-17.5
28782,-5.25,-22.45,1015.16,105.0,-175.0,-35.0
28811,-5.25,-22.57,1015.16,87.5,-175.0,-35.0
28840,-5.25,-22.45,1015.16,105.0,-175.0,-35.0
28869,-5.25,-22.57,1015.16,122.5,-192.5,-52.5
28898,-5.25,-22.57,1015.04,122.5,-192.5,-52.5
28928,-5.25,-22.57,1015.04,122.5,-192.5,-35.0
28957,-5.25,-22.57,1015.04,122.5,-192.5,-17.5
28987,-5.25,-22.57,1015.04,105.0,-175.0,-17.5
29016,-5.12,-22.69,1015.04,122.5,-157.5,-35.0
29046,-5.12,-22.57,1015.04,122.5,-192.5,-35.0
29075,-5.25,-22.57,1015.04,122.5,-175.0,-35.0
29105,-5.25,-22.57,1015.04,122.5,-192.5,-35.0
29134,-5.12,-22.57,1015.04,122.5,-192.5,-35.0
29164,-5.25,-22.57,1015.16,122.5,-192.5,-35.0
29193,-5.25,-22.57,1015.04,122.5,-192.5,-17.5
29223,-5.12,-22.57,1015.04,122.5,-175.0,-35.0
29252,-5.25,-22.57,1015.04,122.5,-175.0,-35.0
29281,-5.25,-22.57,1015.04,122.5,-175.0,-35.0
29310,-5.25,-22.57,1015.04,105.0,-175.0,-35.0
29339,-5.25,-22.57,1015.04,105.0,-175.0,-35.0
29368,-5.25,-22.57,1015.04,122.5,-192.5,-35.0
29397,-5.25,-22.57,1015.04,122.5,-175.0,-17.5
29427,-5.25,-22.57,1015.04,122.5,-175.0,-17.5
29456,-5.25,-22.57,1015.04,105.0,-175.0,-35.0
29486,-5.25,-22.57,1015.04,122.5,-157.5,-35.0
29515,-5.37,-22.57,1015.04,122.5,-175.0,-35.0
29545,-5.37,-22.57,1015.04,122.5,-175.0,-35.0
29574,-5.37,-22.57,1015.04,122.5,-175.0,-35.0
29604,-5.37,-22.45,1015.04,122.5,-175.0,-35.0
29633,-5.37,-22.57,1015.16,122.5,-175.0,-52.5
29663,-5.25,-22.57,1015.16,122.5,-192.5,-35.0
29692,-5.25,-22.57,1015.16,122.5,-175.0,-35.0
29722,-5.37,-22.57,1015.16,140.0,-175.0,-17.5
29751,-5.37,-22.57,1015.16,105.0,-192.5,-17.5
29780,-5.37,-22.57,1015.04,105.0,-175.0,-17.5
29809,-5.37,-22.57,1015.16,105.0,-175.0,-17.5
29838,-5.25,-22.57,1015.16,122.5,-175.0,-17.5
29868,-5.25,-22.57,1015.04,140.0,-192.5,-35.0
29897,-5.25,-22.69,1015.16,122.5,-175.0,-35.0
29927,-5.25,-22.69,1015.16,122.5,-157.5,-17.5
29956,-5.12,-22.69,1015.16,140.0,-157.5,-35.0
29986,-5.25,-22.69,1015.28,122.5,-175.0,-17.5
30015,-5.25,-22.57,1015.28,122.5,-175.0,-17.5
30045,-5.25,-22.57,1015.28,105.0,-175.0,-17.5
30074,-5.25,-22.57,1015.28,105.0,-192.5,-35.0
30104,-5.25,-22.57,1015.28,122.5,-192.5,-35.0
30133,-5.25,-22.69,1015.28,122.5,-175.0,-17.5
30163,-5.25,-22.69,1015.28,122.5,-175.0,-17.5
30192,-5.25,-22.69,1015.28,122.5,-157.5,-17.5
30222,-5.25,-22.57,1015.28,105.0,-192.5,-35.0
30251,-5.25,-22.57,1015.28,122.5,-192.5,-35.0
30280,-5.37,-22.57,1015.28,122.5,-175.0,-35.0
30309,-5.37,-22.69,1015.28,122.5,-175.0,-35.0
30338,-5.37,-22.57,1015.28,122.5,-175.0,-52.5
30368,-5.37,-22.57,1015.28,122.5,-175.0,-35.0
30397,-5.37,-22.57,1015.16,122.5,-175.0,-35.0
30427,-5.37,-22.57,1015.16,105.0,-175.0,-52.5
30456,-5.37,-22.57,1015.16,105.0,-175.0,-17.5
30486,-5.37,-22.57,1015.04,122.5,-192.5,-35.0
30515,-5.37,-22.57,1015.04,105.0,-175.0,-35.0
30545,-5.37,-22.57,1015.04,140.0,-175.0,-35.0
30574,-5.37,-22.57,1015.04,122.5,-175.0,-35.0
30604,-5.37,-22.45,1015.04,105.0,-175.0,-35.0
30633,-5.37,-22.57,1015.04,105.0,-192.5,-52.5
30663,-5.37,-22.57,1015.04,122.5,-192.5,-35.0
30692,-5.37,-22.57,1015.04,105.0,-175.0,-35.0
30721,-5.37,-22.57,1015.04,140.0,-192.5,-17.5
30750,-5.37,-22.57,1015.04,122.5,-192.5,-35.0
30779,-5.37,-22.57,1015.04,105.0,-175.0,-35.0
30809,-5.37,-22.69,1015.04,105.0,-192.5,-17.5
30838,-5.37,-22.69,1015.04,122.5,-157.5,-17.5
30868,-5.37,-22.69,1015.04,105.0,-175.0,-52.5
30897,-5.37,-22.57,1015.04,105.0,-175.0,-35.0
30927,-5.37,-22.57,1015.04,87.5,-175.0,-35.0
30956,-5.37,-22.57,1015.04,140.0,-175.0,-35.0
30986,-5.37,-22.57,1015.04,122.5,-175.0,-35.0
31015,-5.37,-22.57,1015.16,105.0,-192.5,-17.5
31045,-5.25,-22.57,1015.16,105.0,-157.5,-17.5
31074,-5.25,-22.57,1015.16,122.5,-192.5,-17.5
31104,-5.25,-22.57,1015.16,122.5,-175.0,-17.5
31133,-5.25,-22.45,1015.28,122.5,-175.0,-35.0
31163,-5.25,-22.45,1015.28,122.5,-157.5,-17.5
31192,-5.37,-22.45,1015.28,105.0,-157.5,-17.5
31222,-5.37,-22.45,1015.28,105.0,-175.0,-35.0
31251,-5.25,-22.45,1015.28,140.0,-175.0,-35.0
31280,-5.25,-22.45,1015.28,140.0,-175.0,-17.5
31309,-5.25,-22.45,1015.28,140.0,-175.0,-35.0
31338,-5.25,-22.45,1015.28,122.5,-175.0,-35.0
31368,-5.25,-22.45,1015.28,140.0,-175.0,-17.5
31397,-5.25,-22.45,1015.28,122.5,-175.0,-35.0
31427,-5.25,-22.45,1015.28,105.0,-175.0,-52.5
31456,-5.25,-22.45,1015.41,140.0,-175.0,-35.0
31486,-5.25,-22.45,1015.41,122.5,-175.0,-35.0
31515,-5.25,-22.45,1015.41,122.5,-157.5,-35.0
31545,-5.25,-22.45,1015.41,105.0,-175.0,-35.0
31574,-5.25,-22.45,1015.41,122.5,-175.0,-17.5
31604,-5.25,-22.45,1015.41,122.5,-157.5,-17.5
31633,-5.25,-22.45,1015.41,105.0,-175.0,-17.5
31663,-5.25,-22.45,1015.41,122.5,-175.0,-17.5
31692,-5.25,-22.45,1015.41,105.0,-175.0,-17.5
31721,-5.12,-22.45,1015.41,105.0,-175.0,-35.0
31750,-5.12,-22.45,1015.41,105.0,-175.0,-35.0
31779,-5.12,-22.45,1015.41,105.0,-175.0,-17.5
31809,-5.25,-22.45,1015.41,122.5,-175.0,-35.0
31838,-5.12,-22.57,1015.41,105.0,-192.5,-35.0
31868,-5.12,-22.45,1015.41,122.5,-192.5,-35.0
31897,-5.25,-22.45,1015.53,122.5,-175.0,-35.0
31927,-5.25,-22.45,1015.53,105.0,-175.0,-35.0
31956,-5.12,-22.45,1015.53,105.0,-192.5,-35.0
31986,-5.12,-22.45,1015.53,122.5,-192.5,-52.5
32015,-5.25,-22.45,1015.53,105.0,-175.0,-35.0
32045,-5.25,-22.45,1015.53,105.0,-175.0,-35.0
32074,-5.25,-22.45,1015.53,122.5,-175.0,-35.0
32104,-5.25,-22.45,1015.41,105.0,-175.0,-35.0
32133,-5.25,-22.57,1015.53,122.5,-175.0,-35.0
32163,-5.25,-22.45,1015.41,122.5,-192.5,-35.0
32192,-5.25,-22.45,1015.41,122.5,-175.0,-35.0
32221,-5.25,-22.45,1015.41,122.5,-175.0,-35.0
32250,-5.25,-22.45,1015.53,122.5,-175.0,-17.5
32279,-5.12,-22.57,1015.41,105.0,-175.0,0.0
32309,-5.12,-22.45,1015.41,122.5,-175.0,-17.5
32338,-5.25,-22.57,1015.53,122.5,-175.0,-35.0
32368,-5.12,-22.57,1015.53,122.5,-175.0,-35.0
32397,-5.25,-22.45,1015.53,105.0,-175.0,-35.0
32427,-5.25,-22.45,1015.53,105.0,-175.0,-35.0
32456,-5.25,-22.45,1015.53,105.0,-175.0,-35.0
32486,-5.25,-22.57,1015.53,122.5,-157.5,-35.0
32515,-5.25,-22.57,1015.53,122.5,-175.0,-17.5
32545,-5.37,-22.57,1015.53,122.5,-175.0,-17.5
32574,-5.37,-22.57,1015.53,122.5,-175.0,-17.5
32604,-5.37,-22.57,1015.41,140.0,-175.0,-17.5
32633,-5.37,-22.57,1015.41,122.5,-175.0,-17.5
32663,-5.37,-22.57,1015.53,122.5,-175.0,-17.5
32692,-5.37,-22.45,1015.53,122.5,-175.0,-35.0
32721,-5.37,-22.57,1015.41,122.5,-157.5,-35.0
32750,-5.37,-22.57,1015.41,122.5,-175.0,-35.0
32779,-5.37,-22.57,1015.41,105.0,-175.0,-35.0
32809,-5.37,-22.57,1015.41,105.0,-175.0,-35.0
32838,-5.37,-22.57,1015.41,122.5,-175.0,-35.0
32868,-5.37,-22.57,1015.53,140.0,-175.0,-35.0
32897,-5.37,-22.57,1015.53,140.0,-175.0,-17.5
32927,-5.37,-22.69,1015.53,140.0,-157.5,-35.0
32956,-5.37,-22.57,1015.53,140.0,-175.0,-35.0
32986,-5.37,-22.57,1015.53,122.5,-192.5,-35.0
33015,-5.37,-22.57,1015.53,140.0,-210.0,-35.0
33045,-5.37,-22.57,1015.41,122.5,-175.0,-17.5
33074,-5.37,-22.57,1015.41,122.5,-175.0,-35.0
33104,-5.37,-22.57,1015.53,122.5,-175.0,-35.0
33133,-5.37,-22.45,1015.53,122.5,-175.0,-35.0
33163,-5.37,-22.45,1015.53,122.5,-175.0,-35.0
33192,-5.37,-22.45,1015.53,105.0,-175.0,-17.5
33221,-5.37,-22.57,1015.53,140.0,-192.5,-17.5
33250,-5.37,-22.57,1015.53,140.0,-192.5,-35.0
33279,-5.37,-22.57,1015.53,122.5,-175.0,-52.5
33309,-5.37,-22.45,1015.53,122.5,-175.0,-35.0
33338,-5.37,-22.45,1015.41,122.5,-175.0,-35.0
33368,-5.25,-22.57,1015.53,105.0,-175.0,-52.5
33397,-5.25,-22.57,1015.41,122.5,-175.0,-35.0
33427,-5.37,-22.45,1015.41,122.5,-175.0,-35.0
33456,-5.37,-22.57,1015.41,105.0,-175.0,-35.0
33486,-5.37,-22.57,1015.28,122.5,-175.0,-17.5
33515,-5.37,-22.57,1015.28,122.5,-175.0,-17.5
33545,-5.37,-22.57,1015.41,122.5,-175.0,-35.0
33574,-5.37,-22.57,1015.41,105.0,-157.5,-17.5
33604,-5.37,-22.57,1015.41,122.5,-175.0,-17.5
33633,-5.37,-22.57,1015.41,122.5,-175.0,-35.0
33662,-5.37,-22.57,1015.41,105.0,-175.0,-35.0
33691,-5.25,-22.45,1015.41,105.0,-175.0,-35.0
33720,-5.25,-22.45,1015.41,122.5,-175.0,-35.0
33750,-5.25,-22.57,1015.41,105.0,-192.5,-35.0
33779,-5.37,-22.57,1015.41,122.5,-192.5,-35.0
33809,-5.37,-22.57,1015.41,140.0,-175.0,-35.0
33838,-5.37,-22.57,1015.53,105.0,-157.5,-17.5
33868,-5.37,-22.57,1015.53,105.0,-157.5,-17.5
33897,-5.37,-22.57,1015.53,122.5,-175.0,-35.0
33927,-5.37,-22.57,1015.53,87.5,-192.5,-35.0
33956,-5.37,-22.57,1015.41,122.5,-175.0,-35.0
33986,-5.37,-22.57,1015.41,122.5,-175.0,-35.0
34015,-5.37,-22.57,1015.28,105.0,-175.0,-52.5
34045,-5.37,-22.57,1015.28,122.5,-175.0,-35.0
34074,-5.37,-22.57,1015.28,140.0,-157.5,-35.0
34104,-5.37,-22.57,1015.28,122.5,-175.0,-17.5
34133,-5.37,-22.57,1015.28,105.0,-175.0,-35.0
34163,-5.37,-22.57,1015.16,122.5,-175.0,-35.0
34192,-5.37,-22.57,1015.16,122.5,-192.5,-35.0
34221,-5.37,-22.57,1015.16,122.5,-192.5,-35.0
34250,-5.37,-22.57,1015.16,105.0,-192.5,-35.0
34279,-5.37,-22.57,1015.16,122.5,-192.5,-17.5
34309,-5.37,-22.57,1015.04,122.5,-175.0,-35.0
34338,-5.37,-22.69,1015.04,140.0,-157.5,-17.5
34368,-5.37,-22.69,1015.04,140.0,-175.0,-35.0
34397,-5.37,-22.69,1015.04,122.5,-192.5,-35.0
34427,-5.37,-22.69,1014.92,122.5,-175.0,-35.0
34456,-5.37,-22.69,1015.04,122.5,-192.5,-35.0
34486,-5.37,-22.69,1014.92,122.5,-192.5,-52.5
34515,-5.37,-22.69,1014.92,140.0,-175.0,-17.5
34545,-5.37,-22.69,1014.92,122.5,-175.0,-35.0
34574,-5.49,-22.69,1014.92,105.0,-175.0,-35.0
34604,-5.37,-22.69,1014.8,105.0,-175.0,-35.0
34633,-5.37,-22.69,1014.8,105.0,-192.5,-35.0
34663,-5.37,-22.69,1014.8,105.0,-175.0,-35.0
34692,-5.37,-22.69,1014.8,105.0,-175.0,-17.5
34721,-5.37,-22.69,1014.8,105.0,-175.0,-35.0
34750,-5.37,-22.69,1014.8,122.5,-192.5,-35.0
34779,-5.37,-22.69,1014.8,122.5,-175.0,-17.5
34809,-5.37,-22.69,1014.92,105.0,-175.0,-17.5
34838,-5.37,-22.69,1014.92,122.5,-175.0,-35.0
34868,-5.37,-22.69,1014.92,122.5,-175.0,-35.0
34897,-5.37,-22.69,1015.04,122.5,-175.0,-52.5
34927,-5.37,-22.69,1015.04,105.0,-175.0,-35.0
34956,-5.37,-22.69,1015.04,122.5,-175.0,-17.5
34986,-5.37,-22.69,1015.04,122.5,-192.5,-17.5
35015,-5.37,-22.69,1015.04,122.5,-175.0,-17.5
35045,-5.37,-22.69,1015.04,122.5,-175.0,-17.5
35074,-5.37,-22.69,1015.04,122.5,-175.0,-17.5
35104,-5.37,-22.69,1015.04,122.5,-157.5,-35.0
35133,-5.37,-22.69,1015.04,122.5,-175.0,-17.5
35163,-5.37,-22.69,1015.04,122.5,-192.5,-17.5
35192,-5.37,-22.69,1015.04,122.5,-175.0,-35.0
35221,-5.37,-22.69,1015.04,140.0,-175.0,-35.0
35250,-5.37,-22.69,1015.04,140.0,-175.0,-35.0
35279,-5.37,-22.69,1015.04,122.5,-192.5,-35.0
35309,-5.25,-22.69,1015.04,122.5,-192.5,-35.0
35338,-5.25,-22.69,1015.04,122.5,-192.5,-35.0
35368,-5.25,-22.69,1015.04,122.5,-175.0,-35.0
35397,-5.25,-22.69,1015.04,122.5,-175.0,-35.0
35427,-5.25,-22.69,1015.04,122.5,-175.0,-35.0
35456,-5.25,-22.69,1015.04,122.5,-175.0,-35.0
35486,-5.37,-22.57,1015.04,122.5,-157.5,-35.0
35515,-5.37,-22.57,1015.04,122.5,-175.0,-35.0
35545,-5.37,-22.57,1015.04,122.5,-192.5,-35.0
35574,-5.37,-22.57,1015.04,140.0,-175.0,-17.5
35604,-5.37,-22.57,1015.04,122.5,-175.0,-35.0
35633,-5.37,-22.57,1015.04,122.5,-175.0,-35.0
35663,-5.37,-22.69,1015.04,122.5,-192.5,-35.0
35692,-5.37,-22.69,1015.04,122.5,-175.0,-17.5
35721,-5.37,-22.69,1015.04,105.0,-175.0,-35.0
35750,-5.37,-22.69,1015.04,122.5,-175.0,-35.0
35779,-5.37,-22.69,1015.04,122.5,-175.0,-17.5
35809,-5.37,-22.69,1015.04,122.5,-175.0,-35.0
35838,-5.37,-22.69,1015.04,122.5,-175.0,-17.5
35868,-5.37,-22.69,1015.04,122.5,-157.5,-35.0
35897,-5.37,-22.69,1015.04,105.0,-175.0,-35.0
35927,-5.37,-22.69,1015.04,140.0,-175.0,-35.0
35956,-5.37,-22.69,1015.04,122.5,-175.0,-35.0
35986,-5.37,-22.69,1015.04,122.5,-175.0,-35.0
36015,-5.37,-22.69,1015.04,105.0,-175.0,-35.0
36045,-5.37,-22.69,1015.04,105.0,-175.0,-35.0
36074,-5.37,-22.69,1015.04,122.5,-175.0,-35.0
36104,-5.37,-22.57,1015.04,122.5,-157.5,-35.0
36133,-5.37,-22.57,1015.04,105.0,-175.0,-35.0
36162,-5.37,-22.57,1015.04,122.5,-192.5,0.0
36192,-5.37,-22.57,1015.04,105.0,-175.0,-17.5
36221,-5.25,-22.57,1015.04,122.5,-175.0,-17.5
36251,-5.25,-22.57,1015.04,122.5,-175.0,-17.5
36280,-5.25,-22.57,1015.04,105.0,-192.5,-17.5
36310,-5.25,-22.57,1015.04,105.0,-175.0,-35.0
36339,-5.25,-22.57,1015.04,122.5,-175.0,-17.5
36369,-5.25,-22.57,1015.04,105.0,-175.0,-17.5
36398,-5.25,-22.69,1015.04,105.0,-175.0,-52.5
36428,-5.12,-22.57,1015.04,122.5,-192.5,-52.5
36457,-5.25,-22.57,1015.16,105.0,-192.5,-35.0
36487,-5.12,-22.69,1015.04,105.0,-175.0,-35.0
36516,-5.12,-22.57,1015.16,105.0,-192.5,-35.0
36546,-5.25,-22.57,1015.16,105.0,-192.5,-35.0
36575,-5.25,-22.45,1015.16,105.0,-192.5,-17.5
36605,-5.25,-22.57,1015.28,122.5,-175.0,-35.0
36634,-5.25,-22.57,1015.28,122.5,-175.0,-35.0
36663,-5.25,-22.57,1015.28,122.5,-175.0,-35.0
36692,-5.25,-22.45,1015.28,122.5,-192.5,-17.5
36721,-5.25,-22.57,1015.28,105.0,-175.0,-35.0
36751,-5.25,-22.45,1015.28,105.0,-192.5,-35.0
36780,-5.25,-22.45,1015.28,105.0,-175.0,-35.0
36810,-5.25,-22.45,1015.28,105.0,-175.0,-52.5
36839,-5.25,-22.45,1015.41,105.0,-192.5,-35.0
36869,-5.25,-22.57,1015.41,122.5,-175.0,-17.5
36898,-5.25,-22.57,1015.41,122.5,-157.5,-17.5
36928,-5.25,-22.45,1015.53,105.0,-175.0,-35.0
36957,-5.25,-22.45,1015.53,122.5,-175.0,-35.0
36987,-5.25,-22.45,1015.53,105.0,-175.0,-17.5
37016,-5.25,-22.45,1015.53,87.5,-157.5,-17.5
37046,-5.25,-22.45,1015.53,122.5,-192.5,-35.0
37075,-5.25,-22.45,1015.53,122.5,-175.0,-17.5
37105,-5.25,-22.45,1015.53,140.0,-157.5,-35.0
37134,-5.25,-22.45,1015.53,122.5,-157.5,-35.0
37163,-5.25,-22.45,1015.41,122.5,-175.0,-35.0
37192,-5.37,-22.45,1015.41,122.5,-192.5,-35.0
37221,-5.37,-22.57,1015.41,105.0,-175.0,-17.5
37251,-5.37,-22.57,1015.41,122.5,-175.0,-17.5
37280,-5.37,-22.45,1015.41,140.0,-175.0,-35.0
37310,-5.37,-22.57,1015.28,122.5,-175.0,-35.0
37339,-5.37,-22.57,1015.28,122.5,-157.5,-17.5
37369,-5.37,-22.57,1015.28,122.5,-157.5,-17.5
37398,-5.37,-22.57,1015.28,105.0,-175.0,-35.0
37428,-5.37,-22.57,1015.28,140.0,-175.0,-35.0
37457,-5.25,-22.57,1015.28,122.5,-192.5,-17.5
37487,-5.25,-22.57,1015.28,105.0,-175.0,-35.0
37516,-5.37,-22.57,1015.28,105.0,-157.5,-35.0
37546,-5.37,-22.57,1015.16,105.0,-175.0,-35.0
37575,-5.37,-22.57,1015.28,105.0,-175.0,-17.5
37605,-5.37,-22.57,1015.28,105.0,-175.0,-35.0
37634,-5.37,-22.57,1015.28,157.5,-192.5,-35.0
37663,-5.37,-22.57,1015.16,140.0,-157.5,-17.5
37692,-5.37,-22.57,1015.28,140.0,-157.5,-35.0
37721,-5.37,-22.57,1015.28,122.5,-175.0,-35.0
37751,-5.37,-22.45,1015.16,140.0,-175.0,-35.0
37780,-5.37,-22.45,1015.16,140.0,-175.0,-17.5
37810,-5.25,-22.45,1015.16,140.0,-175.0,-35.0
37839,-5.25,-22.57,1015.16,122.5,-175.0,-35.0
37869,-5.37,-22.57,1015.04,105.0,-175.0,-35.0
37898,-5.37,-22.57,1015.04,87.5,-175.0,-35.0
37928,-5.37,-22.45,1015.04,122.5,-175.0,-35.0
37957,-5.37,-22.57,1015.04,122.5,-175.0,-17.5
37987,-5.37,-22.45,1015.04,122.5,-192.5,-35.0
38016,-5.37,-22.45,1014.92,140.0,-175.0,-17.5
38046,-5.37,-22.57,1014.92,122.5,-175.0,-17.5
38075,-5.37,-22.57,1014.92,122.5,-175.0,-17.5
38105,-5.37,-22.57,1014.92,140.0,-175.0,-35.0
38134,-5.37,-22.45,1014.92,105.0,-175.0,-17.5
38163,-5.37,-22.45,1014.92,122.5,-175.0,-35.0
38192,-5.25,-22.45,1014.92,105.0,-192.5,-35.0
38221,-5.25,-22.45,1015.04,122.5,-175.0,-17.5
38250,-5.25,-22.57,1015.04,105.0,-157.5,-35.0
38279,-5.25,-22.45,1015.04,122.5,-157.5,-17.5
38309,-5.25,-22.45,1015.04,105.0,-157.5,-17.5
38338,-5.25,-22.45,1015.04,140.0,-157.5,-17.5
38368,-5.12,-22.57,1015.04,122.5,-175.0,-17.5
38397,-5.25,-22.57,1015.04,122.5,-175.0,-35.0
38427,-5.12,-22.45,1015.04,122.5,-175.0,-17.5
38456,-5.25,-22.45,1015.04,105.0,-175.0,-17.5
38486,-5.12,-22.57,1015.04,122.5,-192.5,-35.0
38515,-5.25,-22.57,1015.04,122.5,-175.0,-17.5
38545,-5.25,-22.57,1015.04,122.5,-175.0,-35.0
38574,-5.25,-22.57,1015.04,122.5,-192.5,-17.5
38604,-5.25,-22.45,1015.04,122.5,-175.0,-17.5
38633,-5.25,-22.45,1015.04,105.0,-175.0,-35.0
38663,-5.25,-22.45,1015.04,122.5,-192.5,-35.0
38692,-5.25,-22.45,1015.04,122.5,-192.5,-35.0
38721,-5.25,-22.45,1015.04,122.5,-157.5,-17.5
38750,-5.25,-22.57,1015.04,122.5,-175.0,-17.5
38779,-5.25,-22.57,1015.04,140.0,-175.0,-35.0
38809,-5.25,-22.57,1015.04,122.5,-175.0,-35.0
38838,-5.25,-22.45,1015.04,105.0,-175.0,-35.0
38868,-5.25,-22.57,1015.16,122.5,-175.0,-35.0
38897,-5.25,-22.57,1015.16,140.0,-175.0,-17.5
38927,-5.12,-22.57,1015.16,122.5,-192.5,-17.5
38956,-5.12,-22.57,1015.16,122.5,-192.5,-17.5
38986,-5.12,-22.45,1015.16,105.0,-175.0,-35.0
39015,-5.25,-22.45,1015.04,140.0,-175.0,-17.5
39045,-5.25,-22.45,1015.16,122.5,-175.0,-17.5
39074,-5.25,-22.45,1015.16,105.0,-175.0,-35.0
39104,-5.12,-22.45,1015.16,105.0,-175.0,-35.0
39133,-5.12,-22.45,1015.16,122.5,-175.0,-17.5
39163,-5.25,-22.45,1015.28,122.5,-175.0,-35.0
39192,-5.25,-22.45,1015.28,122.5,-192.5,-35.0
39221,-5.25,-22.45,1015.28,122.5,-192.5,-35.0
39250,-5.12,-22.45,1015.28,122.5,-175.0,-17.5
39279,-5.25,-22.45,1015.28,105.0,-175.0,-17.5
39309,-5.12,-22.45,1015.16,105.0,-175.0,-17.5
39338,-5.12,-22.45,1015.16,140.0,-175.0,-35.0
39368,-5.25,-22.45,1015.16,122.5,-175.0,-52.5
39397,-5.25,-22.45,1015.16,122.5,-192.5,-35.0
39427,-5.12,-22.45,1015.16,105.0,-175.0,-17.5
39456,-5.12,-22.45,1015.16,105.0,-157.5,-17.5
39486,-5.12,-22.45,1015.16,122.5,-175.0,-35.0
39515,-5.25,-22.45,1015.16,122.5,-175.0,-17.5
39545,-5.25,-22.57,1015.28,122.5,-192.5,-17.5
39574,-5.12,-22.45,1015.16,122.5,-157.5,-17.5
39604,-5.25,-22.45,1015.16,122.5,-175.0,-35.0
39633,-5.12,-22.45,1015.16,105.0,-175.0,-35.0
39663,-5.25,-22.45,1015.28,122.5,-175.0,-35.0
39692,-5.25,-22.45,1015.28,122.5,-175.0,-35.0
39721,-5.12,-22.45,1015.28,122.5,-192.5,-35.0
39750,-5.12,-22.45,1015.28,105.0,-175.0,-35.0
39779,-5.25,-22.45,1015.28,122.5,-175.0,-17.5
39809,-5.12,-22.45,1015.28,122.5,-175.0,-35.0
39838,-5.12,-22.45,1015.28,105.0,-192.5,-17.5
39868,-5.12,-22.45,1015.28,140.0,-175.0,-17.5
39897,-5.12,-22.45,1015.28,140.0,-175.0,0.0
39927,-5.12,-22.45,1015.28,140.0,-192.5,-17.5
39956,-5.12,-22.57,1015.28,140.0,-175.0,-17.5
39986,-5.25,-22.45,1015.41,122.5,-175.0,-17.5
40015,-5.12,-22.45,1015.41,105.0,-175.0,-35.0
40045,-5.12,-22.45,1015.41,122.5,-175.0,-35.0
40074,-5.12,-22.45,1015.41,122.5,-175.0,-17.5
40104,-5.12,-22.45,1015.41,122.5,-175.0,-17.5
40133,-5.25,-22.45,1015.41,122.5,-175.0,-17.5
40163,-5.12,-22.45,1015.41,105.0,-175.0,-17.5
40192,-5.12,-22.45,1015.41,122.5,-175.0,-17.5
40221,-5.12,-22.45,1015.41,122.5,-175.0,-17.5
40250,-5.25,-22.45,1015.41,140.0,-192.5,-17.5
40279,-5.12,-22.45,1015.28,140.0,-192.5,-35.0
40308,-5.12,-22.45,1015.28,122.5,-175.0,-35.0
40337,-5.12,-22.45,1015.28,122.5,-192.5,-35.0
40367,-5.12,-22.45,1015.28,105.0,-175.0,-17.5
40396,-5.12,-22.45,1015.28,105.0,-192.5,-35.0
40426,-5.12,-22.45,1015.28,105.0,-192.5,-17.5
40455,-5.12,-22.45,1015.28,105.0,-175.0,-17.5
40485,-5.12,-22.45,1015.28,105.0,-175.0,-35.0
40514,-5.12,-22.45,1015.28,140.0,-175.0,-17.5
40544,-5.12,-22.45,1015.28,122.5,-175.0,-35.0
40573,-5.25,-22.45,1015.28,122.5,-157.5,-52.5
40603,-5.25,-22.45,1015.28,105.0,-175.0,-35.0
40632,-5.25,-22.45,1015.28,122.5,-175.0,-35.0
40662,-5.25,-22.45,1015.16,122.5,-175.0,-35.0
40691,-5.25,-22.45,1015.28,105.0,-175.0,-52.5
40721,-5.25,-22.45,1015.28,105.0,-175.0,-35.0
40750,-5.25,-22.45,1015.28,122.5,-175.0,-17.5
40779,-5.25,-22.45,1015.16,105.0,-157.5,-17.5
40808,-5.25,-22.45,1015.16,122.5,-157.5,-35.0
40837,-5.25,-22.45,1015.16,105.0,-175.0,-17.5
40867,-5.25,-22.45,1015.04,122.5,-175.0,-35.0
40896,-5.25,-22.45,1015.04,105.0,-175.0,-17.5
40926,-5.25,-22.45,1015.04,122.5,-175.0,-17.5
40955,-5.25,-22.45,1015.04,122.5,-192.5,-17.5
40985,-5.25,-22.45,1015.04,105.0,-175.0,-17.5
41014,-5.25,-22.45,1015.04,122.5,-192.5,-17.5
41044,-5.25,-22.45,1015.04,122.5,-192.5,-35.0
41073,-5.25,-22.45,1015.04,122.5,-175.0,-35.0
41103,-5.25,-22.45,1015.04,105.0,-175.0,-35.0
41132,-5.25,-22.45,1015.04,122.5,-157.5,-17.5
41162,-5.25,-22.45,1015.04,122.5,-157.5,-17.5
41191,-5.25,-22.45,1015.16,140.0,-192.5,-35.0
41221,-5.25,-22.45,1015.16,140.0,-192.5,-35.0
41250,-5.25,-22.33,1015.28,122.5,-175.0,-35.0
41279,-5.25,-22.33,1015.28,122.5,-175.0,-35.0
41308,-5.25,-22.33,1015.16,122.5,-175.0,-35.0
41337,-5.25,-22.33,1015.28,140.0,-175.0,0.0
41367,-5.25,-22.33,1015.16,122.5,-192.5,-17.5
41396,-5.25,-22.33,1015.16,105.0,-175.0,-52.5
41426,-5.25,-22.33,1015.16,122.5,-157.5,-35.0
41455,-5.25,-22.45,1015.16,122.5,-175.0,-35.0
41485,-5.25,-22.45,1015.16,105.0,-175.0,-17.5
41514,-5.25,-22.45,1015.16,105.0,-175.0,-17.5
41544,-5.25,-22.45,1015.16,122.5,-175.0,-35.0
41573,-5.25,-22.45,1015.16,122.5,-175.0,-35.0
41603,-5.25,-22.45,1015.16,105.0,-175.0,-17.5
41632,-5.25,-22.45,1015.16,122.5,-192.5,-17.5
41662,-5.25,-22.45,1015.16,122.5,-192.5,-35.0
41691,-5.25,-22.45,1015.16,122.5,-175.0,-52.5
41721,-5.25,-22.45,1015.16,105.0,-175.0,-35.0
41750,-5.25,-22.45,1015.04,105.0,-175.0,-35.0
41780,-5.25,-22.45,1015.04,122.5,-175.0,-35.0
41809,-5.25,-22.45,1015.04,122.5,-175.0,-17.5
41838,-5.25,-22.45,1014.92,105.0,-175.0,-35.0
41867,-5.25,-22.45,1014.92,105.0,-175.0,-35.0
41896,-5.25,-22.45,1014.92,87.5,-175.0,-35.0
41926,-5.25,-22.57,1014.92,122.5,-157.5,-35.0
41955,-5.25,-22.57,1014.8,122.5,-175.0,-17.5
41985,-5.25,-22.57,1014.8,140.0,-175.0,-35.0
42014,-5.25,-22.57,1014.8,122.5,-175.0,-35.0
42044,-5.25,-22.57,1014.67,105.0,-175.0,-17.5
42073,-5.25,-22.57,1014.67,122.5,-157.5,0.0
42103,-5.37,-22.69,1014.67,105.0,-192.5,-17.5
42132,-5.25,-22.69,1014.67,105.0,-175.0,-35.0
42162,-5.25,-22.57,1014.67,105.0,-175.0,-35.0
42191,-5.25,-22.57,1014.67,122.5,-175.0,-17.5
42221,-5.25,-22.57,1014.67,105.0,-175.0,-35.0
42250,-5.25,-22.57,1014.67,122.5,-175.0,-35.0
42280,-5.25,-22.57,1014.55,105.0,-175.0,-35.0
42309,-5.12,-22.57,1014.55,105.0,-192.5,-35.0
42339,-5.25,-22.45,1014.55,105.0,-175.0,-17.5
42368,-5.12,-22.45,1014.55,122.5,-175.0,-17.5
42397,-5.12,-22.57,1014.55,122.5,-175.0,-35.0
42426,-5.25,-22.57,1014.55,122.5,-175.0,-52.5
42455,-5.25,-22.57,1014.55,105.0,-175.0,-35.0
42485,-5.25,-22.57,1014.55,122.5,-175.0,-35.0
42514,-5.25,-22.57,1014.55,105.0,-192.5,-35.0
42544,-5.25,-22.45,1014.55,122.5,-175.0,-35.0
42573,-5.25,-22.45,1014.55,122.5,-175.0,-35.0
42603,-5.25,-22.57,1014.55,105.0,-175.0,-35.0
42632,-5.25,-22.57,1014.55,105.0,-175.0,-35.0
42662,-5.25,-22.57,1014.55,105.0,-192.5,-35.0
42691,-5.25,-22.57,1014.55,122.5,-192.5,-17.5
42721,-5.37,-22.45,1014.55,140.0,-192.5,-35.0
42750,-5.37,-22.57,1014.55,122.5,-175.0,-35.0
42780,-5.37,-22.57,1014.55,122.5,-175.0,-17.5
42809,-5.37,-22.57,1014.55,122.5,-175.0,-17.5
42839,-5.37,-22.57,1014.55,105.0,-175.0,-17.5
42868,-5.37,-22.57,1014.55,105.0,-157.5,-35.0
42897,-5.37,-22.57,1014.55,122.5,-175.0,-52.5
42926,-5.37,-22.57,1014.43,105.0,-175.0,-35.0
42955,-5.37,-22.45,1014.55,122.5,-175.0,-35.0
42985,-5.25,-22.57,1014.55,122.5,-210.0,-35.0
43014,-5.25,-22.57,1014.55,122.5,-192.5,-35.0
43044,-5.25,-22.57,1014.55,122.5,-192.5,-35.0
43073,-5.25,-22.45,1014.55,140.0,-175.0,-17.5
43103,-5.25,-22.45,1014.55,105.0,-175.0,-17.5
43132,-5.37,-22.45,1014.55,122.5,-175.0,-35.0
43162,-5.37,-22.45,1014.67,122.5,-175.0,-35.0
43191,-5.37,-22.45,1014.67,122.5,-175.0,-35.0
43221,-5.25,-22.45,1014.8,122.5,-175.0,-35.0
43250,-5.37,-22.45,1014.8,122.5,-175.0,-17.5
43280,-5.25,-22.45,1014.8,122.5,-175.0,-17.5
43309,-5.25,-22.45,1014.8,140.0,-175.0,-35.0
43339,-5.25,-22.45,1014.92,122.5,-192.5,-35.0
43368,-5.25,-22.45,1014.92,122.5,-157.5,-35.0
43397,-5.12,-22.45,1014.92,122.5,-175.0,-35.0
43426,-5.12,-22.45,1014.92,122.5,-175.0,-17.5
43455,-5.12,-22.45,1015.04,122.5,-175.0,-35.0
43484,-5.12,-22.45,1015.04,122.5,-192.5,-35.0
43513,-5.12,-22.45,1015.04,122.5,-192.5,-17.5
43543,-5.25,-22.45,1015.04,105.0,-175.0,-17.5
43572,-5.12,-22.45,1015.04,122.5,-175.0,-35.0
43602,-5.12,-22.45,1015.04,105.0,-157.5,-17.5
43631,-5.25,-22.45,1015.16,105.0,-157.5,-35.0
43661,-5.25,-22.45,1015.16,122.5,-175.0,-35.0
43690,-5.12,-22.45,1015.16,122.5,-192.5,-35.0
43720,-5.12,-22.45,1015.16,122.5,-192.5,-17.5
43749,-5.12,-22.45,1015.16,122.5,-192.5,-17.5
43779,-5.12,-22.45,1015.16,105.0,-175.0,-35.0
43808,-5.25,-22.45,1015.16,122.5,-192.5,-35.0
43838,-5.25,-22.45,1015.16,122.5,-175.0,-35.0
43867,-5.25,-22.45,1015.16,122.5,-175.0,-17.5
43897,-5.12,-22.45,1015.16,122.5,-175.0,-35.0
43926,-5.25,-22.45,1015.16,122.5,-157.5,-35.0
43955,-5.25,-22.45,1015.04,105.0,-192.5,-17.5
43984,-5.12,-22.45,1015.04,122.5,-192.5,-35.0
44013,-5.25,-22.45,1015.04,122.5,-175.0,-35.0
44042,-5.12,-22.45,1015.04,105.0,-175.0,-35.0
44071,-5.25,-22.45,1015.04,122.5,-175.0,-35.0
44101,-5.25,-22.45,1014.92,122.5,-175.0,-35.0
44130,-5.25,-22.45,1014.92,122.5,-175.0,-35.0
44160,-5.12,-22.45,1014.92,122.5,-175.0,-17.5
44189,-5.25,-22.45,1014.92,122.5,-175.0,-35.0
44219,-5.25,-22.45,1014.92,140.0,-192.5,-35.0
44248,-5.12,-22.45,1014.8,122.5,-157.5,-35.0
44278,-5.12,-22.45,1014.8,122.5,-157.5,-17.5
44307,-5.25,-22.45,1014.8,122.5,-175.0,-35.0
44337,-5.25,-22.45,1014.8,105.0,-175.0,-35.0
44366,-5.12,-22.45,1014.67,140.0,-175.0,-35.0
44396,-5.25,-22.45,1014.67,122.5,-175.0,-17.5
44425,-5.25,-22.45,1014.67,122.5,-175.0,-35.0
44455,-5.12,-22.45,1014.67,105.0,-175.0,-35.0
44484,-5.25,-22.45,1014.67,122.5,-192.5,-17.5
44513,-5.25,-22.45,1014.67,122.5,-192.5,-35.0
44542,-5.25,-22.45,1014.67,122.5,-192.5,-35.0
44571,-5.25,-22.45,1014.67,122.5,-175.0,-35.0
44600,-5.25,-22.45,1014.8,122.5,-175.0,-35.0
44629,-5.25,-22.45,1014.8,122.5,-175.0,-17.5
44659,-5.25,-22.57,1014.8,122.5,-175.0,-17.5
44688,-5.37,-22.57,1014.8,105.0,-175.0,-35.0
44718,-5.25,-22.45,1014.8,122.5,-192.5,-35.0
44747,-5.25,-22.45,1014.8,122.5,-192.5,-35.0
44777,-5.37,-22.45,1014.8,122.5,-175.0,-35.0
44806,-5.25,-22.57,1014.8,122.5,-175.0,-17.5
44836,-5.25,-22.45,1014.8,122.5,-175.0,-17.5
44865,-5.25,-22.57,1014.8,122.5,-192.5,-17.5
44895,-5.25,-22.45,1014.8,105.0,-175.0,-35.0
44924,-5.25,-22.45,1014.92,122.5,-175.0,-17.5
44954,-5.12,-22.45,1014.92,140.0,-175.0,-17.5
44983,-5.25,-22.45,1014.8,122.5,-175.0,-17.5
45013,-5.25,-22.45,1014.8,122.5,-175.0,-35.0
45042,-5.25,-22.45,1014.8,122.5,-175.0,-52.5
45071,-5.25,-22.45,1014.8,122.5,-157.5,-35.0
45100,-5.25,-22.45,1014.8,122.5,-175.0,-35.0
45129,-5.25,-22.45,1014.8,122.5,-175.0,-35.0
45159,-5.25,-22.45,1014.92,122.5,-175.0,-35.0
45188,-5.25,-22.45,1015.04,105.0,-175.0,-17.5
45218,-5.25,-22.45,1015.04,122.5,-175.0,-35.0
45247,-5.25,-22.45,1015.04,122.5,-175.0,-35.0
45277,-5.25,-22.45,1015.04,140.0,-175.0,-35.0
45306,-5.37,-22.45,1015.04,105.0,-175.0,-35.0
45336,-5.37,-22.45,1015.04,105.0,-175.0,-35.0
45365,-5.37,-22.45,1015.16,105.0,-175.0,-35.0
45395,-5.37,-22.45,1015.28,122.5,-175.0,-35.0
45424,-5.37,-22.57,1015.16,105.0,-175.0,-35.0
45454,-5.37,-22.57,1015.16,105.0,-192.5,-52.5
45483,-5.37,-22.57,1015.16,105.0,-192.5,-17.5
45513,-5.37,-22.45,1015.16,140.0,-192.5,-35.0
45542,-5.37,-22.45,1015.16,122.5,-175.0,-35.0
45572,-5.37,-22.45,1015.28,122.5,-175.0,-35.0
45601,-5.25,-22.45,1015.16,122.5,-175.0,-35.0
45630,-5.37,-22.45,1015.16,122.5,-175.0,-17.5
45659,-5.25,-22.57,1015.16,122.5,-157.5,-17.5
45688,-5.25,-22.45,1015.16,122.5,-175.0,-17.5
45718,-5.25,-22.45,1015.16,122.5,-192.5,-35.0
45747,-5.25,-22.57,1015.16,105.0,-192.5,-35.0
45777,-5.25,-22.45,1015.16,105.0,-175.0,-17.5
45806,-5.25,-22.45,1015.16,140.0,-175.0,-35.0
45836,-5.25,-22.57,1015.04,122.5,-192.5,-35.0
45865,-5.25,-22.57,1015.04,122.5,-175.0,-17.5
45895,-5.25,-22.45,1015.04,122.5,-175.0,-17.5
45924,-5.25,-22.45,1015.04,122.5,-175.0,-17.5
45954,-5.25,-22.45,1015.04,122.5,-175.0,-35.0
45983,-5.25,-22.45,1015.04,122.5,-192.5,-17.5
46013,-5.37,-22.45,1014.92,122.5,-192.5,-35.0
46042,-5.37,-22.57,1015.04,122.5,-192.5,-35.0
46072,-5.25,-22.57,1014.92,105.0,-192.5,-17.5
46101,-5.37,-22.45,1014.92,105.0,-192.5,-17.5
46130,-5.25,-22.45,1015.04,105.0,-175.0,-35.0
46159,-5.37,-22.45,1014.92,122.5,-175.0,-35.0
46188,-5.37,-22.57,1014.92,105.0,-175.0,-35.0
46218,-5.37,-22.57,1015.04,122.5,-175.0,-35.0
46247,-5.37,-22.57,1015.04,122.5,-175.0,-35.0
46277,-5.25,-22.57,1015.04,140.0,-175.0,-17.5
46306,-5.25,-22.45,1015.04,122.5,-175.0,-35.0
46336,-5.25,-22.45,1015.04,105.0,-157.5,-35.0
46365,-5.25,-22.45,1015.04,122.5,-175.0,-17.5
46395,-5.25,-22.45,1015.04,122.5,-175.0,-17.5
46424,-5.25,-22.57,1015.04,122.5,-175.0,-35.0
46454,-5.25,-22.57,1015.04,105.0,-192.5,-35.0
46483,-5.25,-22.45,1015.04,105.0,-175.0,-35.0
46513,-5.25,-22.45,1015.04,122.5,-175.0,-35.0
46542,-5.25,-22.57,1015.04,140.0,-175.0,-35.0
46572,-5.25,-22.45,1015.04,122.5,-175.0,-17.5
46601,-5.25,-22.45,1015.04,122.5,-175.0,-35.0
46630,-5.25,-22.45,1015.04,122.5,-175.0,-17.5
46659,-5.37,-22.45,1015.04,105.0,-175.0,-17.5
46688,-5.37,-22.45,1015.04,122.5,-175.0,-17.5
46718,-5.37,-22.45,1015.04,122.5,-175.0,-35.0
46747,-5.37,-22.45,1015.04,122.5,-175.0,-35.0
46777,-5.37,-22.45,1015.04,140.0,-175.0,-35.0
46806,-5.37,-22.45,1015.04,140.0,-175.0,-35.0
46836,-5.37,-22.45,1015.04,122.5,-192.5,-35.0
46865,-5.37,-22.45,1015.04,122.5,-192.5,-17.5
46895,-5.37,-22.45,1015.04,105.0,-175.0,-17.5
46924,-5.37,-22.45,1015.04,105.0,-192.5,0.0
46954,-5.25,-22.45,1015.04,105.0,-192.5,-17.5
46983,-5.37,-22.45,1015.16,122.5,-175.0,-17.5
47013,-5.37,-22.45,1015.04,105.0,-157.5,-17.5
47042,-5.25,-22.45,1015.04,105.0,-175.0,-17.5
47072,-5.25,-22.45,1015.04,122.5,-192.5,-17.5
47101,-5.25,-22.45,1015.04,122.5,-175.0,-35.0
47130,-5.25,-22.45,1015.04,122.5,-175.0,-17.5
47159,-5.25,-22.45,1015.04,105.0,-157.5,-35.0
47188,-5.25,-22.45,1015.04,122.5,-175.0,-35.0
47218,-5.37,-22.45,1015.04,122.5,-175.0,-35.0
47247,-5.37,-22.45,1015.04,105.0,-175.0,-35.0
47277,-5.37,-22.45,1015.04,122.5,-192.5,-35.0
47306,-5.25,-22.45,1015.04,122.5,-192.5,-35.0
47336,-5.25,-22.45,1015.04,122.5,-192.5,-35.0
47365,-5.25,-22.45,1015.04,140.0,-175.0,-35.0
47395,-5.25,-22.45,1015.04,122.5,-192.5,-35.0
47424,-5.25,-22.45,1015.04,122.5,-192.5,-35.0
47454,-5.25,-22.45,1015.04,140.0,-175.0,-17.5
47483,-5.25,-22.45,1015.04,122.5,-175.0,-35.0
47513,-5.25,-22.45,1015.04,122.5,-157.5,-35.0
47542,-5.25,-22.45,1015.16,122.5,-175.0,-17.5
47571,-5.25,-22.45,1015.16,105.0,-175.0,-17.5
47600,-5.25,-22.45,1015.16,122.5,-175.0,-17.5
47629,-5.25,-22.45,1015.16,140.0,-175.0,-35.0
47658,-5.37,-22.45,1015.28,140.0,-175.0,-52.5
47687,-5.25,-22.45,1015.28,122.5,-175.0,-35.0
47717,-5.37,-22.45,1015.28,105.0,-192.5,-35.0
47746,-5.25,-22.45,1015.28,122.5,-192.5,-35.0
47776,-5.25,-22.45,1015.28,140.0,-192.5,-17.5
47805,-5.25,-22.45,1015.28,122.5,-157.5,-35.0
47835,-5.25,-22.45,1015.16,105.0,-157.5,-17.5
47864,-5.25,-22.45,1015.16,122.5,-175.0,-35.0
47894,-5.25,-22.45,1015.16,105.0,-175.0,-35.0
47923,-5.25,-22.45,1015.28,122.5,-175.0,-35.0
47953,-5.37,-22.57,1015.28,122.5,-192.5,-35.0
47982,-5.37,-22.45,1015.28,105.0,-192.5,-17.5
48012,-5.37,-22.45,1015.28,122.5,-175.0,-35.0
48041,-5.25,-22.45,1015.16,122.5,-175.0,-35.0
48071,-5.25,-22.57,1015.28,105.0,-175.0,-35.0
48100,-5.25,-22.45,1015.16,105.0,-175.0,-35.0
48129,-5.25,-22.45,1015.28,122.5,-175.0,-35.0
48158,-5.25,-22.57,1015.16,122.5,-175.0,-52.5
48187,-5.25,-22.45,1015.16,122.5,-157.5,-35.0
48217,-5.25,-22.45,1015.16,105.0,-175.0,-17.5
48246,-5.25,-22.45,1015.28,122.5,-192.5,-17.5
48276,-5.37,-22.57,1015.16,122.5,-175.0,0.0
48305,-5.37,-22.57,1015.28,105.0,-157.5,-17.5
48335,-5.37,-22.45,1015.28,105.0,-175.0,-17.5
48364,-5.37,-22.45,1015.28,105.0,-175.0,-17.5
48394,-5.25,-22.45,1015.28,122.5,-175.0,-17.5
48423,-5.25,-22.57,1015.28,105.0,-175.0,-35.0
48453,-5.25,-22.57,1015.28,122.5,-157.5,-35.0
48482,-5.25,-22.45,1015.28,140.0,-175.0,-35.0
48512,-5.25,-22.45,1015.28,140.0,-192.5,-52.5
48541,-5.25,-22.57,1015.28,122.5,-175.0,-35.0
48571,-5.25,-22.45,1015.16,140.0,-192.5,-35.0
48600,-5.25,-22.45,1015.16,140.0,-192.5,-35.0
48629,-5.25,-22.45,1015.16,122.5,-175.0,-17.5
48658,-5.25,-22.45,1015.16,140.0,-175.0,-35.0
48687,-5.12,-22.45,1015.16,122.5,-175.0,-35.0
48717,-5.25,-22.45,1015.04,122.5,-192.5,-35.0
48746,-5.25,-22.45,1015.04,122.5,-175.0,-17.5
48776,-5.12,-22.45,1015.04,122.5,-175.0,-35.0
48805,-5.25,-22.45,1015.04,105.0,-175.0,-35.0
48835,-5.12,-22.45,1015.04,105.0,-175.0,-35.0
48864,-5.12,-22.45,1015.04,122.5,-192.5,-17.5
48894,-5.12,-22.45,1015.04,140.0,-157.5,-17.5
48923,-5.12,-22.45,1015.04,122.5,-175.0,-17.5
48953,-5.25,-22.45,1015.04,122.5,-175.0,-35.0
48982,-5.12,-22.45,1015.04,122.5,-157.5,-17.5
49012,-5.12,-22.45,1015.04,105.0,-192.5,-35.0
49041,-5.25,-22.45,1015.16,105.0,-192.5,-35.0
49071,-5.12,-22.45,1015.16,122.5,-192.5,-17.5
49100,-5.25,-22.45,1015.16,122.5,-175.0,-17.5
49129,-5.25,-22.45,1015.28,105.0,-157.5,-35.0
49158,-5.25,-22.45,1015.28,105.0,-175.0,-35.0
49187,-5.25,-22.45,1015.28,122.5,-175.0,-35.0
49217,-5.25,-22.45,1015.28,122.5,-192.5,-35.0
49246,-5.25,-22.45,1015.28,122.5,-192.5,-17.5
49276,-5.12,-22.45,1015.28,105.0,-192.5,-17.5
49305,-5.25,-22.45,1015.28,87.5,-175.0,-35.0
49335,-5.25,-22.45,1015.28,140.0,-175.0,-17.5
49364,-5.25,-22.45,1015.41,140.0,-175.0,-35.0
49394,-5.12,-22.45,1015.41,140.0,-175.0,-35.0
49423,-5.12,-22.45,1015.53,105.0,-192.5,-35.0
49453,-5.12,-22.45,1015.53,122.5,-175.0,-52.5
49482,-5.12,-22.45,1015.53,122.5,-192.5,-35.0
49512,-5.25,-22.45,1015.53,105.0,-175.0,-35.0
49541,-5.12,-22.45,1015.53,122.5,-192.5,-17.5
49570,-5.12,-22.45,1015.53,140.0,-175.0,-35.0
49599,-5.12,-22.45,1015.53,122.5,-175.0,-35.0
49628,-5.12,-22.45,1015.53,122.5,-175.0,-17.5
49657,-5.12,-22.45,1015.65,140.0,-175.0,-17.5
49686,-5.12,-22.45,1015.65,122.5,-192.5,-17.5
49716,-5.12,-22.45,1015.65,122.5,-192.5,-35.0
49745,-5.12,-22.45,1015.65,122.5,-175.0,-35.0
49775,-5.12,-22.45,1015.77,105.0,-192.5,-35.0
49804,-5.12,-22.45,1015.77,122.5,-175.0,-35.0
49834,-5.12,-22.45,1015.77,122.5,-175.0,-17.5
49863,-5.12,-22.45,1015.77,140.0,-192.5,-35.0
49893,-5.12,-22.45,1015.77,122.5,-175.0,-35.0
49922,-5.12,-22.45,1015.77,105.0,-192.5,-35.0
49952,-5.12,-22.45,1015.77,122.5,-175.0,-35.0
49981,-5.12,-22.45,1015.77,122.5,-157.5,-35.0
50011,-5.25,-22.45,1015.77,105.0,-175.0,-35.0
50040,-5.25,-22.45,1015.77,122.5,-175.0,-35.0
50069,-5.25,-22.45,1015.77,122.5,-192.5,-35.0
50098,-5.12,-22.45,1015.77,105.0,-175.0,-35.0
50127,-5.25,-22.45,1015.77,105.0,-175.0,-35.0
50157,-5.25,-22.45,1015.77,122.5,-175.0,-35.0
50186,-5.25,-22.45,1015.77,122.5,-157.5,-17.5
50216,-5.25,-22.45,1015.77,122.5,-175.0,-35.0
50245,-5.25,-22.45,1015.77,122.5,-175.0,-17.5
50275,-5.25,-22.45,1015.77,122.5,-175.0,-17.5
50304,-5.25,-22.45,1015.77,140.0,-175.0,-35.0
50334,-5.37,-22.45,1015.77,122.5,-175.0,-35.0
50363,-5.37,-22.45,1015.77,140.0,-175.0,-35.0
50393,-5.37,-22.45,1015.77,105.0,-157.5,-35.0
50422,-5.37,-22.45,1015.77,122.5,-175.0,-35.0
50452,-5.37,-22.45,1015.77,122.5,-175.0,-17.5
50481,-5.37,-22.45,1015.77,122.5,-175.0,-35.0
50510,-5.37,-22.45,1015.89,122.5,-175.0,-35.0
50539,-5.37,-22.57,1015.77,122.5,-175.0,-17.5
50568,-5.37,-22.45,1015.77,105.0,-192.5,-17.5
50598,-5.37,-22.45,1015.77,122.5,-192.5,-35.0
50627,-5.37,-22.45,1015.77,122.5,-175.0,-17.5
50657,-5.37,-22.45,1015.77,140.0,-175.0,-17.5
50686,-5.37,-22.45,1015.77,122.5,-175.0,-35.0
50716,-5.37,-22.45,1015.77,122.5,-192.5,-35.0
50745,-5.37,-22.45,1015.77,122.5,-175.0,-35.0
50775,-5.37,-22.45,1015.77,105.0,-175.0,-35.0
50804,-5.37,-22.45,1015.65,105.0,-175.0,-35.0
50834,-5.25,-22.45,1015.65,122.5,-157.5,-35.0
50863,-5.25,-22.45,1015.65,105.0,-157.5,-52.5
50893,-5.25,-22.45,1015.65,122.5,-192.5,-35.0
50922,-5.25,-22.45,1015.65,122.5,-192.5,-35.0
50952,-5.25,-22.45,1015.53,122.5,-175.0,-35.0
50981,-5.25,-22.45,1015.53,122.5,-192.5,-35.0
51010,-5.37,-22.45,1015.53,140.0,-192.5,-35.0
51039,-5.25,-22.45,1015.53,122.5,-175.0,-17.5
51068,-5.25,-22.45,1015.65,122.5,-192.5,-35.0
51098,-5.25,-22.45,1015.65,122.5,-157.5,-17.5
51127,-5.25,-22.45,1015.65,105.0,-175.0,-17.5
51157,-5.25,-22.45,1015.65,105.0,-175.0,-17.5
51186,-5.25,-22.45,1015.53,140.0,-157.5,-35.0
51216,-5.25,-22.45,1015.65,122.5,-175.0,-35.0
51245,-5.25,-22.45,1015.65,122.5,-175.0,-17.5
51275,-5.25,-22.45,1015.65,105.0,-192.5,-52.5
51304,-5.25,-22.45,1015.65,105.0,-175.0,-35.0
51334,-5.25,-22.45,1015.65,105.0,-192.5,-35.0
51363,-5.25,-22.45,1015.65,105.0,-175.0,-17.5
51393,-5.25,-22.45,1015.65,122.5,-175.0,-35.0
51422,-5.25,-22.45,1015.65,122.5,-175.0,-35.0
51451,-5.25,-22.45,1015.65,140.0,-175.0,-35.0
51480,-5.25,-22.45,1015.65,122.5,-175.0,-35.0
51509,-5.25,-22.45,1015.65,122.5,-175.0,-35.0
51538,-5.25,-22.45,1015.65,140.0,-175.0,-35.0
51567,-5.25,-22.45,1015.65,105.0,-175.0,-35.0
51597,-5.25,-22.45,1015.65,105.0,-192.5,-17.5
51626,-5.25,-22.45,1015.65,122.5,-175.0,-35.0
51656,-5.25,-22.45,1015.53,122.5,-175.0,-35.0
51685,-5.25,-22.45,1015.53,122.5,-175.0,-35.0
51715,-5.37,-22.45,1015.53,122.5,-175.0,-35.0
51744,-5.37,-22.45,1015.53,122.5,-157.5,-17.5
51774,-5.37,-22.45,1015.53,140.0,-175.0,-35.0
51803,-5.37,-22.45,1015.41,122.5,-175.0,-35.0
51833,-5.37,-22.45,1015.41,140.0,-175.0,-35.0
51862,-5.37,-22.45,1015.28,122.5,-192.5,-17.5
51892,-5.37,-22.45,1015.28,122.5,-192.5,-35.0
51921,-5.37,-22.57,1015.16,105.0,-175.0,-35.0
51950,-5.37,-22.57,1015.04,105.0,-175.0,-35.0
51979,-5.37,-22.57,1015.04,122.5,-175.0,-35.0
52008,-5.37,-22.57,1014.92,122.5,-175.0,-35.0
52038,-5.37,-22.45,1014.92,122.5,-157.5,-35.0
52067,-5.37,-22.45,1014.8,105.0,-175.0,-35.0
52097,-5.37,-22.57,1014.8,122.5,-192.5,-35.0
52126,-5.37,-22.57,1014.8,122.5,-175.0,-35.0
52156,-5.37,-22.57,1014.67,122.5,-175.0,-17.5
52185,-5.37,-22.57,1014.67,122.5,-192.5,-35.0
52215,-5.37,-22.57,1014.55,105.0,-175.0,-35.0
52244,-5.37,-22.57,1014.55,122.5,-175.0,-17.5
52274,-5.25,-22.57,1014.55,140.0,-192.5,-35.0
52303,-5.25,-22.57,1014.43,140.0,-175.0,-35.0
52333,-5.37,-22.57,1014.43,122.5,-175.0,-17.5
52362,-5.25,-22.57,1014.31,105.0,-192.5,-17.5
52392,-5.37,-22.57,1014.31,140.0,-175.0,-35.0
52421,-5.25,-22.57,1014.31,122.5,-192.5,-35.0
52450,-5.37,-22.57,1014.19,122.5,-175.0,-17.5
52479,-5.37,-22.57,1014.06,122.5,-175.0,-35.0
52508,-5.37,-22.57,1014.06,105.0,-157.5,-35.0
52538,-5.25,-22.57,1013.94,105.0,-175.0,-35.0
52567,-5.25,-22.57,1013.94,122.5,-175.0,-35.0
52597,-5.25,-22.57,1013.94,122.5,-157.5,-35.0
52626,-5.25,-22.57,1013.82,105.0,-175.0,-35.0
52656,-5.25,-22.57,1013.82,122.5,-175.0,-17.5
52685,-5.25,-22.57,1013.82,105.0,-192.5,-17.5
52715,-5.25,-22.57,1013.82,105.0,-192.5,-17.5
52744,-5.37,-22.57,1013.82,105.0,-192.5,-35.0
52774,-5.37,-22.57,1013.82,105.0,-175.0,-35.0
52803,-5.37,-22.57,1013.82,105.0,-192.5,-35.0
52833,-5.25,-22.57,1013.82,122.5,-192.5,-17.5
52862,-5.25,-22.57,1013.94,140.0,-192.5,-17.5
52892,-5.25,-22.57,1013.94,122.5,-192.5,-17.5
52921,-5.25,-22.57,1014.06,105.0,-175.0,-17.5
52950,-5.25,-22.57,1014.06,122.5,-157.5,-35.0
52979,-5.25,-22.57,1014.06,122.5,-175.0,-35.0
53008,-5.25,-22.57,1014.06,122.5,-175.0,-35.0
53038,-5.25,-22.45,1014.06,122.5,-175.0,-35.0
53067,-5.25,-22.57,1014.06,105.0,-175.0,-35.0
53097,-5.37,-22.57,1014.06,105.0,-157.5,-17.5
53126,-5.37,-22.57,1014.06,122.5,-175.0,-17.5
53156,-5.37,-22.57,1014.06,122.5,-175.0,-35.0
53185,-5.37,-22.57,1014.06,140.0,-175.0,-17.5
53215,-5.37,-22.57,1014.06,122.5,-175.0,-17.5
53244,-5.37,-22.57,1014.06,122.5,-175.0,-17.5
53274,-5.37,-22.57,1014.06,122.5,-175.0,-35.0
53303,-5.37,-22.57,1014.06,105.0,-175.0,-17.5
53333,-5.37,-22.57,1014.06,122.5,-175.0,-35.0
53362,-5.37,-22.57,1014.06,122.5,-175.0,-17.5
53392,-5.37,-22.69,1014.06,105.0,-175.0,-35.0
53421,-5.37,-22.69,1014.06,105.0,-175.0,-35.0
53450,-5.37,-22.69,1014.06,122.5,-175.0,-35.0
53479,-5.37,-22.57,1014.06,122.5,-175.0,-35.0
53508,-5.37,-22.57,1014.06,105.0,-175.0,-17.5
53537,-5.37,-22.57,1014.19,105.0,-192.5,-35.0
53566,-5.37,-22.57,1014.31,122.5,-192.5,-35.0
53596,-5.25,-22.57,1014.31,105.0,-192.5,-17.5
53625,-5.37,-22.57,1014.31,105.0,-192.5,-35.0
53655,-5.37,-22.57,1014.31,122.5,-175.0,-17.5
53684,-5.37,-22.45,1014.31,140.0,-175.0,-17.5
53714,-5.37,-22.57,1014.31,140.0,-175.0,-35.0
53743,-5.37,-22.57,1014.19,122.5,-175.0,-17.5
53773,-5.37,-22.57,1014.31,122.5,-175.0,-35.0
53802,-5.37,-22.57,1014.19,122.5,-175.0,-52.5
53832,-5.37,-22.45,1014.19,140.0,-175.0,-35.0
53861,-5.37,-22.45,1014.19,122.5,-175.0,-35.0
53891,-5.37,-22.45,1014.19,122.5,-175.0,-35.0
53920,-5.37,-22.45,1014.19,122.5,-175.0,-35.0
53950,-5.37,-22.45,1014.06,122.5,-192.5,-52.5
53979,-5.37,-22.45,1014.06,122.5,-192.5,-35.0
54008,-5.37,-22.45,1014.06,122.5,-157.5,-35.0
54037,-5.37,-22.45,1014.06,105.0,-175.0,-35.0
54066,-5.37,-22.45,1014.06,122.5,-175.0,-35.0
54096,-5.37,-22.45,1014.06,122.5,-175.0,-35.0
54125,-5.37,-22.45,1014.19,105.0,-175.0,-35.0
54155,-5.37,-22.45,1014.19,122.5,-192.5,-35.0
54184,-5.37,-22.45,1014.31,140.0,-192.5,-35.0
54214,-5.37,-22.45,1014.31,122.5,-192.5,-35.0
54243,-5.37,-22.45,1014.31,105.0,-175.0,-35.0
54273,-5.37,-22.45,1014.31,122.5,-175.0,-17.5
54302,-5.37,-22.45,1014.43,140.0,-175.0,-35.0
54332,-5.37,-22.45,1014.55,122.5,-175.0,-35.0
54361,-5.25,-22.45,1014.55,105.0,-175.0,-35.0
54391,-5.25,-22.45,1014.55,105.0,-175.0,-35.0
54420,-5.25,-22.45,1014.55,105.0,-175.0,-35.0
54450,-5.25,-22.45,1014.55,140.0,-175.0,-35.0
54479,-5.25,-22.45,1014.55,122.5,-192.5,-35.0
54508,-5.25,-22.45,1014.55,122.5,-210.0,-52.5
54537,-5.25,-22.45,1014.55,122.5,-192.5,-35.0
54566,-5.25,-22.45,1014.55,122.5,-175.0,-35.0
54596,-5.25,-22.45,1014.55,122.5,-175.0,-35.0
54625,-5.25,-22.45,1014.55,122.5,-175.0,-52.5
54655,-5.25,-22.45,1014.55,140.0,-175.0,-52.5
54684,-5.25,-22.45,1014.55,122.5,-175.0,-35.0
54714,-5.25,-22.45,1014.67,140.0,-175.0,-17.5
54743,-5.25,-22.45,1014.67,105.0,-175.0,-35.0
54773,-5.25,-22.45,1014.67,105.0,-192.5,-17.5
54802,-5.25,-22.45,1014.8,105.0,-192.5,-17.5
54832,-5.25,-22.45,1014.8,105.0,-175.0,-17.5
54861,-5.25,-22.45,1014.8,105.0,-175.0,-35.0
54891,-5.12,-22.45,1014.8,122.5,-192.5,-17.5
54920,-5.25,-22.45,1014.8,140.0,-175.0,-17.5
54950,-5.25,-22.45,1014.92,122.5,-175.0,-17.5
54979,-5.25,-22.45,1014.92,105.0,-157.5,-35.0
55009,-5.12,-22.45,1014.92,105.0,-192.5,-17.5
55038,-5.12,-22.45,1014.92,122.5,-192.5,-35.0
55067,-5.25,-22.45,1014.92,122.5,-175.0,-35.0
55096,-5.12,-22.45,1015.04,122.5,-175.0,-35.0
55125,-5.25,-22.45,1015.04,122.5,-192.5,-17.5
55155,-5.25,-22.45,1015.04,122.5,-157.5,-17.5
55184,-5.25,-22.33,1015.04,122.5,-175.0,-35.0
55214,-5.25,-22.33,1015.04,122.5,-175.0,-17.5
55243,-5.25,-22.45,1015.04,122.5,-175.0,-35.0
55273,-5.25,-22.45,1015.04,105.0,-157.5,-35.0
55302,-5.25,-22.45,1015.04,105.0,-175.0,-35.0
55332,-5.25,-22.45,1015.04,122.5,-192.5,-35.0
55361,-5.25,-22.45,1015.04,140.0,-157.5,-17.5
55391,-5.25,-22.45,1015.04,122.5,-175.0,-35.0
55420,-5.25,-22.45,1015.04,122.5,-175.0,-35.0
55450,-5.25,-22.45,1014.92,122.5,-175.0,-17.5
55479,-5.25,-22.45,1014.92,105.0,-175.0,-35.0
55509,-5.12,-22.45,1014.92,122.5,-175.0,-17.5
55538,-5.12,-22.45,1014.8,140.0,-175.0,-35.0
55567,-5.12,-22.45,1014.8,122.5,-175.0,-35.0
55596,-5.25,-22.45,1014.92,122.5,-175.0,-35.0
55625,-5.25,-22.45,1014.8,122.5,-192.5,-35.0
55654,-5.25,-22.33,1014.8,122.5,-175.0,-35.0
55683,-5.25,-22.33,1014.8,122.5,-175.0,-35.0
55713,-5.25,-22.33,1014.8,105.0,-175.0,-35.0
55742,-5.25,-22.33,1014.8,105.0,-192.5,-35.0
55772,-5.37,-22.33,1014.8,105.0,-192.5,-35.0
55801,-5.37,-22.33,1014.8,105.0,-175.0,-35.0
55831,-5.37,-22.33,1014.8,105.0,-175.0,-35.0
55860,-5.37,-22.33,1014.8,122.5,-175.0,-17.5
55890,-5.37,-22.33,1014.67,105.0,-192.5,-35.0
55919,-5.37,-22.45,1014.55,105.0,-192.5,-17.5
55949,-5.37,-22.45,1014.55,122.5,-175.0,-35.0
55978,-5.37,-22.45,1014.55,105.0,-175.0,-35.0
56008,-5.37,-22.45,1014.43,122.5,-175.0,-35.0
56037,-5.37,-22.45,1014.43,122.5,-192.5,-35.0
56067,-5.37,-22.45,1014.43,140.0,-192.5,-17.5
56096,-5.37,-22.45,1014.43,122.5,-192.5,-35.0
56125,-5.37,-22.45,1014.43,122.5,-192.5,-35.0
56154,-5.25,-22.57,1014.55,105.0,-175.0,-35.0
56183,-5.37,-22.57,1014.55,105.0,-175.0,-35.0
56213,-5.25,-22.57,1014.55,122.5,-175.0,-17.5
56242,-5.25,-22.57,1014.55,122.5,-175.0,-17.5
56272,-5.37,-22.57,1014.55,140.0,-175.0,-35.0
56301,-5.25,-22.57,1014.55,105.0,-175.0,-35.0
56331,-5.25,-22.45,1014.55,87.5,-175.0,-35.0
56360,-5.25,-22.45,1014.55,87.5,-192.5,-35.0
56390,-5.25,-22.45,1014.55,122.5,-192.5,-35.0
56419,-5.37,-22.45,1014.55,122.5,-175.0,-35.0
56449,-5.37,-22.45,1014.55,140.0,-157.5,-35.0
56478,-5.37,-22.45,1014.55,105.0,-175.0,-17.5
56508,-5.37,-22.45,1014.55,105.0,-175.0,-17.5
56537,-5.37,-22.57,1014.55,122.5,-175.0,-35.0
56567,-5.37,-22.45,1014.55,122.5,-192.5,-35.0
56596,-5.37,-22.57,1014.55,122.5,-175.0,0.0
56625,-5.37,-22.45,1014.55,122.5,-192.5,-35.0
56654,-5.37,-22.45,1014.67,122.5,-175.0,-17.5
56683,-5.37,-22.45,1014.67,105.0,-175.0,-35.0
56712,-5.25,-22.45,1014.67,105.0,-175.0,-17.5
56741,-5.25,-22.45,1014.8,105.0,-157.5,-35.0
56771,-5.25,-22.45,1014.8,105.0,-175.0,-17.5
56800,-5.12,-22.45,1014.8,122.5,-175.0,-35.0
56830,-5.25,-22.45,1014.8,122.5,-175.0,-17.5
56859,-5.25,-22.45,1014.8,122.5,-157.5,-17.5
56889,-5.12,-22.45,1014.8,140.0,-175.0,-35.0
56918,-5.12,-22.45,1014.67,122.5,-157.5,-35.0
56948,-5.12,-22.45,1014.8,122.5,-192.5,-35.0
56977,-5.25,-22.45,1014.8,122.5,-192.5,-35.0
57007,-5.25,-22.45,1014.8,105.0,-175.0,-35.0
57036,-5.25,-22.45,1014.8,122.5,-157.5,-35.0
57066,-5.25,-22.45,1014.8,122.5,-192.5,-35.0
57095,-5.25,-22.45,1014.8,122.5,-175.0,-35.0
57125,-5.25,-22.45,1014.8,105.0,-192.5,-35.0
57154,-5.25,-22.45,1014.8,122.5,-175.0,-17.5
57183,-5.12,-22.45,1014.92,122.5,-175.0,-35.0
57212,-5.12,-22.45,1014.92,122.5,-175.0,-35.0
57241,-5.12,-22.45,1014.92,122.5,-175.0,-35.0
57271,-5.12,-22.45,1014.92,140.0,-192.5,-35.0
57300,-5.25,-22.45,1014.92,122.5,-175.0,-35.0
57330,-5.12,-22.45,1014.92,122.5,-175.0,-35.0
57359,-5.25,-22.45,1014.92,105.0,-175.0,-35.0
57389,-5.25,-22.45,1014.92,87.5,-175.0,-17.5
57418,-5.25,-22.45,1014.92,122.5,-175.0,-35.0
57448,-5.25,-22.45,1015.04,140.0,-175.0,-35.0
57477,-5.25,-22.57,1015.04,122.5,-175.0,-35.0
57507,-5.25,-22.57,1015.04,122.5,-175.0,-35.0
57536,-5.25,-22.57,1015.04,105.0,-175.0,-17.5
57566,-5.25,-22.45,1015.04,105.0,-192.5,-35.0
57595,-5.25,-22.57,1015.04,122.5,-175.0,-17.5
57625,-5.25,-22.45,1015.04,122.5,-175.0,-17.5
57654,-5.37,-22.57,1014.92,140.0,-175.0,-35.0
57683,-5.37,-22.45,1014.92,122.5,-192.5,-35.0
57712,-5.37,-22.57,1014.92,122.5,-192.5,-35.0
57741,-5.37,-22.57,1014.92,122.5,-175.0,-35.0
57771,-5.37,-22.57,1014.8,122.5,-192.5,-17.5
57800,-5.37,-22.57,1014.92,140.0,-175.0,-35.0
57830,-5.25,-22.45,1014.92,122.5,-192.5,-35.0
57859,-5.25,-22.57,1014.92,122.5,-175.0,-35.0
57889,-5.25,-22.57,1014.92,122.5,-192.5,-35.0
57918,-5.25,-22.57,1014.92,122.5,-175.0,-17.5
57948,-5.25,-22.57,1014.92,105.0,-192.5,-35.0
57977,-5.25,-22.57,1014.92,122.5,-192.5,-17.5
58007,-5.25,-22.57,1014.92,140.0,-175.0,-17.5
58036,-5.25,-22.57,1014.92,122.5,-175.0,-35.0
58066,-5.25,-22.45,1014.92,105.0,-175.0,-17.5
58095,-5.25,-22.45,1014.92,122.5,-192.5,-17.5
58125,-5.25,-22.45,1014.8,122.5,-192.5,-35.0
58154,-5.25,-22.45,1014.8,122.5,-175.0,-35.0
58184,-5.25,-22.45,1014.92,105.0,-175.0,-35.0
58213,-5.25,-22.45,1014.92,140.0,-175.0,-35.0
58242,-5.25,-22.45,1014.92,122.5,-192.5,-35.0
58271,-5.25,-22.45,1014.92,122.5,-192.5,-35.0
58300,-5.25,-22.45,1015.04,122.5,-175.0,-17.5
58330,-5.25,-22.45,1015.04,122.5,-175.0,-17.5
58359,-5.25,-22.45,1015.04,122.5,-175.0,-17.5
58389,-5.25,-22.45,1015.04,122.5,-175.0,-35.0
58418,-5.25,-22.45,1015.04,122.5,-175.0,-35.0
58448,-5.25,-22.45,1014.92,122.5,-175.0,-35.0
58477,-5.25,-22.45,1014.92,122.5,-192.5,-35.0
58507,-5.25,-22.45,1014.92,122.5,-175.0,-35.0
58536,-5.25,-22.57,1014.92,122.5,-192.5,-17.5
58566,-5.25,-22.45,1014.8,122.5,-192.5,-35.0
58595,-5.25,-22.57,1014.8,105.0,-175.0,-17.5
58625,-5.25,-22.57,1014.8,122.5,-175.0,-35.0
58654,-5.25,-22.57,1014.8,105.0,-175.0,-17.5
58684,-5.25,-22.57,1014.8,105.0,-192.5,-17.5
58713,-5.25,-22.45,1014.8,87.5,-175.0,-17.5
58742,-5.37,-22.45,1014.8,122.5,-175.0,-17.5
58771,-5.25,-22.45,1014.8,122.5,-175.0,-17.5
58800,-5.25,-22.45,1014.92,122.5,-175.0,-35.0
58830,-5.25,-22.45,1014.92,122.5,-175.0,-17.5
58859,-5.25,-22.45,1015.04,122.5,-175.0,-35.0
58889,-5.37,-22.45,1015.04,122.5,-175.0,-17.5
58918,-5.37,-22.45,1015.04,105.0,-175.0,-17.5
58948,-5.37,-22.45,1015.04,122.5,-175.0,-17.5
58977,-5.37,-22.45,1015.04,140.0,-175.0,-35.0
59007,-5.37,-22.45,1015.04,122.5,-175.0,-35.0
59036,-5.37,-22.57,1015.04,122.5,-192.5,-35.0
59066,-5.37,-22.45,1015.04,105.0,-175.0,-35.0
59095,-5.37,-22.57,1015.16,140.0,-157.5,-52.5
59125,-5.37,-22.45,1015.16,122.5,-175.0,-35.0
59154,-5.37,-22.45,1015.16,122.5,-192.5,-35.0
59184,-5.37,-22.45,1015.16,122.5,-192.5,-35.0
59213,-5.37,-22.45,1015.16,122.5,-175.0,-35.0
59242,-5.37,-22.45,1015.16,122.5,-175.0,-17.5
59271,-5.37,-22.45,1015.04,122.5,-175.0,-17.5
59300,-5.37,-22.45,1015.04,122.5,-175.0,-35.0
59329,-5.37,-22.45,1015.04,105.0,-157.5,-35.0
59358,-5.37,-22.57,1015.04,105.0,-175.0,-35.0
59388,-5.37,-22.45,1014.92,140.0,-157.5,-17.5
59417,-5.37,-22.45,1014.92,122.5,-175.0,-35.0
59447,-5.37,-22.45,1014.92,122.5,-192.5,-52.5
59476,-5.37,-22.45,1014.92,122.5,-175.0,-35.0
59506,-5.37,-22.45,1014.92,122.5,-175.0,-35.0
59535,-5.37,-22.45,1014.92,105.0,-175.0,-17.5
59565,-5.37,-22.45,1014.92,105.0,-157.5,-35.0
59594,-5.37,-22.45,1014.92,105.0,-157.5,-35.0
59624,-5.37,-22.45,1014.92,122.5,-175.0,-17.5
59653,-5.37,-22.45,1015.04,122.5,-175.0,-17.5
59683,-5.25,-22.45,1014.92,105.0,-175.0,-35.0
59712,-5.25,-22.45,1015.04,122.5,-175.0,-35.0
59742,-5.25,-22.45,1015.04,105.0,-192.5,-35.0
59771,-5.25,-22.45,1015.04,122.5,-192.5,-35.0
59800,-5.25,-22.45,1015.04,122.5,-192.5,-17.5
59829,-5.25,-22.45,1015.04,105.0,-175.0,-17.5
59858,-5.25,-22.45,1015.04,105.0,-157.5,-17.5
59888,-5.12,-22.45,1015.04,122.5,-175.0,-35.0
59917,-5.12,-22.45,1015.04,105.0,-192.5,-17.5
59947,-5.25,-22.45,1015.04,105.0,-175.0,0.0
59976,-5.25,-22.45,1015.16,105.0,-175.0,-17.5
60006,-5.25,-22.45,1015.16,105.0,-192.5,0.0
60035,-5.37,-22.45,1015.28,87.5,-192.5,-35.0
60065,-5.25,-22.45,1015.28,87.5,-192.5,-17.5
60094,-5.37,-22.45,1015.28,105.0,-175.0,-35.0
60124,-5.37,-22.45,1015.28,122.5,-192.5,-17.5
60153,-5.25,-22.45,1015.28,122.5,-192.5,-35.0
60183,-5.37,-22.45,1015.28,105.0,-175.0,-17.5
60212,-5.37,-22.45,1015.28,105.0,-175.0,-17.5
60242,-5.37,-22.45,1015.28,105.0,-175.0,-17.5
60271,-5.25,-22.45,1015.28,122.5,-175.0,-17.5
60300,-5.25,-22.45,1015.28,122.5,-175.0,-35.0
60329,-5.25,-22.45,1015.28,122.5,-175.0,-17.5
60358,-5.25,-22.45,1015.28,122.5,-175.0,-35.0
60388,-5.25,-22.45,1015.28,122.5,-157.5,-35.0
60417,-5.37,-22.45,1015.28,122.5,-175.0,-35.0
60447,-5.25,-22.45,1015.41,105.0,-175.0,-35.0
60476,-5.37,-22.45,1015.41,105.0,-175.0,-35.0
60506,-5.37,-22.45,1015.41,105.0,-175.0,-35.0
60535,-5.37,-22.45,1015.41,105.0,-175.0,-17.5
60565,-5.37,-22.45,1015.41,105.0,-175.0,-35.0
60594,-5.37,-22.45,1015.53,122.5,-210.0,-52.5
60624,-5.37,-22.45,1015.53,105.0,-175.0,-35.0
60653,-5.25,-22.45,1015.53,122.5,-175.0,-17.5
60683,-5.37,-22.45,1015.53,122.5,-175.0,-35.0
60712,-5.25,-22.45,1015.53,105.0,-175.0,-17.5
60742,-5.25,-22.45,1015.53,122.5,-175.0,-17.5
60771,-5.37,-22.45,1015.53,122.5,-175.0,-35.0
60800,-5.25,-22.45,1015.53,105.0,-175.0,-35.0
60829,-5.25,-22.45,1015.53,105.0,-175.0,-35.0
60858,-5.25,-22.45,1015.53,122.5,-175.0,-35.0
60888,-5.25,-22.45,1015.53,140.0,-175.0,-35.0
60917,-5.25,-22.45,1015.41,122.5,-192.5,-35.0
60947,-5.25,-22.45,1015.41,105.0,-175.0,-35.0
60976,-5.25,-22.45,1015.41,122.5,-192.5,-35.0
61006,-5.25,-22.45,1015.28,105.0,-192.5,-35.0
61035,-5.12,-22.45,1015.28,122.5,-175.0,-17.5
61065,-5.25,-22.45,1015.41,105.0,-192.5,-35.0
61094,-5.12,-22.45,1015.41,105.0,-192.5,-35.0
61124,-5.12,-22.45,1015.28,105.0,-175.0,-35.0
61153,-5.25,-22.45,1015.28,105.0,-175.0,-17.5
61183,-5.12,-22.45,1015.28,122.5,-192.5,-35.0
61212,-5.12,-22.45,1015.28,105.0,-192.5,-35.0
61242,-5.25,-22.45,1015.28,122.5,-192.5,-35.0
61271,-5.12,-22.45,1015.28,122.5,-192.5,-35.0
61301,-5.25,-22.45,1015.28,122.5,-157.5,-17.5
61330,-5.25,-22.45,1015.28,105.0,-175.0,-17.5
61359,-5.25,-22.45,1015.28,122.5,-175.0,-35.0
61388,-5.25,-22.45,1015.28,122.5,-175.0,-35.0
61417,-5.25,-22.45,1015.28,105.0,-175.0,-35.0
61447,-5.25,-22.45,1015.28,122.5,-175.0,-35.0
61476,-5.25,-22.45,1015.16,122.5,-175.0,-17.5
61506,-5.25,-22.45,1015.16,122.5,-175.0,-35.0
61535,-5.25,-22.45,1015.16,122.5,-192.5,-17.5
61565,-5.12,-22.45,1015.16,122.5,-175.0,-17.5
61594,-5.12,-22.45,1015.04,122.5,-175.0,-35.0
61624,-5.25,-22.45,1015.04,122.5,-175.0,-52.5
61653,-5.25,-22.45,1015.04,122.5,-175.0,-35.0
61683,-5.25,-22.45,1015.04,122.5,-175.0,-35.0
61712,-5.25,-22.45,1015.04,105.0,-175.0,-35.0
61742,-5.25,-22.45,1015.04,105.0,-157.5,-35.0
61771,-5.25,-22.45,1015.04,140.0,-175.0,-35.0
61801,-5.25,-22.45,1015.04,122.5,-175.0,-35.0
61830,-5.25,-22.45,1015.16,122.5,-175.0,-35.0
61859,-5.25,-22.45,1015.16,122.5,-175.0,-35.0
61888,-5.25,-22.45,1015.16,122.5,-192.5,-52.5
61917,-5.37,-22.45,1015.28,122.5,-192.5,-35.0
61947,-5.37,-22.45,1015.28,122.5,-192.5,-35.0
61976,-5.37,-22.45,1015.28,122.5,-175.0,-17.5
62006,-5.37,-22.45,1015.16,122.5,-175.0,-17.5
62035,-5.37,-22.45,1015.16,140.0,-175.0,-35.0
62065,-5.37,-22.45,1015.16,122.5,-175.0,-35.0
62094,-5.37,-22.45,1015.16,105.0,-175.0,-35.0
62124,-5.37,-22.45,1015.16,122.5,-192.5,-35.0
62153,-5.37,-22.45,1015.28,122.5,-175.0,-17.5
62183,-5.37,-22.45,1015.28,122.5,-175.0,-35.0
62212,-5.37,-22.45,1015.28,122.5,-175.0,-17.5
62242,-5.37,-22.45,1015.28,122.5,-175.0,-17.5
62271,-5.37,-22.45,1015.28,122.5,-175.0,-35.0
62301,-5.37,-22.45,1015.28,122.5,-192.5,-35.0
62330,-5.37,-22.45,1015.41,122.5,-175.0,-35.0
62359,-5.37,-22.45,1015.28,122.5,-175.0,-35.0
62388,-5.37,-22.45,1015.28,122.5,-175.0,-35.0
62417,-5.37,-22.45,1015.28,105.0,-175.0,-35.0
62446,-5.37,-22.45,1015.28,122.5,-192.5,-17.5
62475,-5.37,-22.45,1015.28,122.5,-175.0,-17.5
62505,-5.37,-22.45,1015.28,122.5,-175.0,-17.5
62534,-5.37,-22.45,1015.28,140.0,-157.5,-35.0
62564,-5.37,-22.45,1015.28,140.0,-175.0,-35.0
62593,-5.37,-22.45,1015.28,140.0,-192.5,-35.0
62623,-5.37,-22.45,1015.28,122.5,-192.5,-35.0
62652,-5.37,-22.45,1015.28,122.5,-192.5,-35.0
62682,-5.25,-22.45,1015.28,105.0,-175.0,-35.0
62711,-5.25,-22.57,1015.28,122.5,-175.0,-35.0
62741,-5.25,-22.45,1015.28,122.5,-175.0,-35.0
62770,-5.25,-22.57,1015.28,122.5,-175.0,-17.5
62800,-5.37,-22.45,1015.28,122.5,-175.0,-17.5
62829,-5.37,-22.45,1015.16,122.5,-192.5,-35.0
62858,-5.37,-22.45,1015.16,105.0,-175.0,-35.0
62887,-5.25,-22.45,1015.16,140.0,-175.0,-35.0
62916,-5.25,-22.45,1015.16,122.5,-175.0,-35.0
62945,-5.25,-22.45,1015.16,122.5,-157.5,-35.0
62974,-5.37,-22.45,1015.16,105.0,-175.0,-52.5
63004,-5.37,-22.45,1015.16,122.5,-192.5,-35.0
63033,-5.25,-22.45,1015.16,122.5,-192.5,-35.0
63063,-5.37,-22.45,1015.16,122.5,-157.5,-35.0
63092,-5.25,-22.45,1015.16,122.5,-175.0,-35.0
63122,-5.25,-22.45,1015.16,122.5,-192.5,-35.0
63151,-5.37,-22.45,1015.04,122.5,-175.0,-17.5
63181,-5.37,-22.45,1015.04,122.5,-175.0,-17.5
63210,-5.37,-22.45,1015.04,140.0,-175.0,-35.0
63240,-5.25,-22.45,1015.04,122.5,-175.0,-35.0
63269,-5.25,-22.45,1015.04,105.0,-175.0,-35.0
63299,-5.25,-22.45,1015.04,122.5,-175.0,-35.0
63328,-5.25,-22.45,1015.04,122.5,-175.0,-17.5
63357,-5.25,-22.45,1015.04,122.5,-175.0,-17.5
63386,-5.25,-22.45,1015.04,122.5,-192.5,-17.5
63415,-5.25,-22.45,1015.04,105.0,-175.0,-17.5
63444,-5.25,-22.45,1015.04,122.5,-175.0,-17.5
63473,-5.25,-22.45,1015.04,122.5,-175.0,-17.5
63503,-5.37,-22.45,1015.04,122.5,-175.0,-17.5
63532,-5.25,-22.45,1015.04,122.5,-175.0,-17.5
63562,-5.37,-22.45,1015.04,122.5,-192.5,-17.5
63591,-5.37,-22.45,1015.16,105.0,-175.0,-17.5
63621,-5.37,-22.45,1015.16,122.5,-192.5,-17.5
63650,-5.37,-22.45,1015.16,105.0,-157.5,-17.5
63680,-5.37,-22.45,1015.16,122.5,-175.0,-17.5
63709,-5.37,-22.45,1015.16,122.5,-175.0,-17.5
63739,-5.37,-22.45,1015.28,122.5,-175.0,-35.0
63768,-5.37,-22.45,1015.28,105.0,-175.0,-35.0
63798,-5.37,-22.45,1015.28,140.0,-175.0,-35.0
63827,-5.37,-22.45,1015.28,140.0,-175.0,-35.0
63856,-5.37,-22.45,1015.28,122.5,-192.5,-35.0
63885,-5.37,-22.45,1015.28,122.5,-175.0,-35.0
63914,-5.37,-22.45,1015.28,122.5,-192.5,-17.5
63943,-5.37,-22.45,1015.28,140.0,-192.5,-35.0
63972,-5.37,-22.45,1015.28,122.5,-175.0,-35.0
64002,-5.37,-22.45,1015.28,122.5,-157.5,-35.0
64031,-5.37,-22.45,1015.28,122.5,-175.0,-35.0
64061,-5.37,-22.45,1015.28,122.5,-192.5,-35.0
64090,-5.37,-22.45,1015.28,122.5,-175.0,-17.5
64120,-5.37,-22.45,1015.28,122.5,-157.5,-35.0
64149,-5.37,-22.45,1015.41,122.5,-175.0,-35.0
64179,-5.37,-22.45,1015.41,105.0,-157.5,-35.0
64208,-5.37,-22.45,1015.41,122.5,-175.0,-52.5
64238,-5.25,-22.45,1015.41,122.5,-175.0,-17.5
64267,-5.25,-22.45,1015.41,105.0,-175.0,-17.5
64297,-5.25,-22.45,1015.28,105.0,-175.0,-35.0
64326,-5.25,-22.45,1015.41,105.0,-175.0,-35.0
64355,-5.25,-22.45,1015.41,122.5,-175.0,-35.0
64384,-5.12,-22.45,1015.28,105.0,-175.0,-35.0
64413,-5.25,-22.45,1015.41,122.5,-192.5,-35.0
64442,-5.25,-22.45,1015.41,122.5,-192.5,-17.5
64471,-5.25,-22.45,1015.41,122.5,-192.5,-35.0
64501,-5.25,-22.45,1015.41,122.5,-175.0,-35.0
64530,-5.25,-22.45,1015.41,122.5,-175.0,-35.0
64560,-5.25,-22.45,1015.41,140.0,-175.0,-35.0
64589,-5.25,-22.45,1015.41,140.0,-175.0,-35.0
64619,-5.25,-22.45,1015.41,122.5,-175.0,-35.0
64648,-5.25,-22.45,1015.41,122.5,-175.0,-35.0
64678,-5.25,-22.45,1015.41,122.5,-157.5,-17.5
64707,-5.25,-22.45,1015.41,105.0,-175.0,-35.0
64737,-5.25,-22.45,1015.41,140.0,-175.0,-35.0
64766,-5.25,-22.45,1015.28,140.0,-192.5,-35.0
64796,-5.25,-22.45,1015.28,140.0,-192.5,-35.0
64825,-5.25,-22.45,1015.28,122.5,-175.0,-17.5
64855,-5.37,-22.45,1015.28,122.5,-157.5,-35.0
64884,-5.37,-22.45,1015.28,122.5,-175.0,-35.0
64913,-5.37,-22.45,1015.28,140.0,-175.0,-17.5
64942,-5.25,-22.45,1015.28,122.5,-175.0,-17.5
64971,-5.37,-22.45,1015.28,122.5,-192.5,-17.5
65001,-5.37,-22.45,1015.16,122.5,-175.0,-35.0
65030,-5.37,-22.45,1015.16,122.5,-175.0,-35.0
65060,-5.37,-22.45,1015.16,122.5,-157.5,-35.0
65089,-5.37,-22.45,1015.16,122.5,-157.5,-17.5
65119,-5.37,-22.45,1015.16,122.5,-175.0,-17.5
65148,-5.37,-22.45,1015.04,105.0,-192.5,-17.5
65178,-5.25,-22.45,1015.04,105.0,-192.5,-35.0
65207,-5.25,-22.45,1015.04,105.0,-192.5,-35.0
65237,-5.25,-22.45,1015.04,105.0,-175.0,-35.0
65266,-5.25,-22.45,1015.04,105.0,-175.0,-17.5
65296,-5.25,-22.45,1015.04,122.5,-175.0,-35.0
65325,-5.25,-22.45,1015.04,122.5,-175.0,-35.0
65355,-5.25,-22.45,1015.04,140.0,-192.5,-35.0
65384,-5.37,-22.45,1014.92,122.5,-192.5,-35.0
65413,-5.37,-22.45,1014.92,122.5,-192.5,-17.5
65442,-5.25,-22.45,1015.04,122.5,-157.5,-35.0
65471,-5.25,-22.45,1015.04,122.5,-157.5,-17.5
65500,-5.25,-22.45,1015.04,122.5,-175.0,-17.5
65529,-5.25,-22.45,1015.04,105.0,-192.5,-35.0
65559,-5.25,-22.45,1015.04,122.5,-175.0,-35.0
65588,-5.25,-22.45,1015.04,122.5,-157.5,-17.5
65618,-5.25,-22.45,1015.04,122.5,-175.0,-52.5
65647,-5.25,-22.45,1015.04,140.0,-175.0,-17.5
65677,-5.25,-22.45,1015.04,105.0,-175.0,-17.5
65706,-5.12,-22.45,1015.04,122.5,-175.0,-17.5
65736,-5.25,-22.45,1015.04,105.0,-175.0,-35.0
65765,-5.25,-22.45,1015.04,87.5,-157.5,-35.0
65795,-5.25,-22.45,1015.04,122.5,-192.5,-35.0
65824,-5.25,-22.45,1015.04,122.5,-192.5,-17.5
65854,-5.25,-22.45,1015.04,122.5,-175.0,-35.0
65883,-5.25,-22.45,1015.04,105.0,-175.0,-35.0
65912,-5.25,-22.45,1015.04,122.5,-175.0,-35.0
65941,-5.25,-22.45,1015.04,122.5,-192.5,-35.0
65970,-5.25,-22.45,1015.04,122.5,-175.0,-35.0
65999,-5.25,-22.45,1015.04,122.5,-175.0,-35.0
66028,-5.25,-22.45,1015.04,122.5,-157.5,-35.0
66058,-5.25,-22.45,1015.04,122.5,-175.0,-35.0
66087,-5.25,-22.45,1015.04,105.0,-175.0,-17.5
66117,-5.25,-22.45,1015.04,105.0,-175.0,-35.0
66146,-5.25,-22.45,1015.04,105.0,-192.5,-35.0
66176,-5.12,-22.45,1015.04,105.0,-192.5,-17.5
66205,-5.25,-22.45,1015.04,122.5,-192.5,-35.0
66235,-5.25,-22.45,1015.04,122.5,-192.5,-35.0
66264,-5.25,-22.45,1015.04,122.5,-192.5,-35.0
66294,-5.25,-22.45,1015.04,122.5,-175.0,-35.0
66323,-5.25,-22.45,1015.04,122.5,-175.0,-35.0
66353,-5.25,-22.45,1015.04,122.5,-175.0,-35.0
66382,-5.25,-22.45,1015.04,122.5,-175.0,-35.0
66412,-5.25,-22.45,1014.92,122.5,-157.5,-35.0
66441,-5.25,-22.57,1014.92,140.0,-157.5,-17.5
66470,-5.25,-22.57,1014.92,122.5,-175.0,-17.5
66499,-5.25,-22.45,1014.8,122.5,-192.5,-35.0
66528,-5.12,-22.57,1014.8,122.5,-192.5,-35.0
66558,-5.25,-22.57,1014.92,122.5,-175.0,-35.0
66587,-5.12,-22.57,1014.92,122.5,-175.0,-35.0
66617,-5.12,-22.57,1014.92,122.5,-175.0,-35.0
66646,-5.12,-22.57,1014.92,105.0,-157.5,-17.5
66676,-5.12,-22.57,1014.92,105.0,-192.5,-35.0
66705,-5.25,-22.45,1014.92,122.5,-192.5,-35.0
66735,-5.25,-22.45,1014.92,122.5,-192.5,-35.0
66764,-5.25,-22.45,1014.92,122.5,-175.0,-35.0
66794,-5.25,-22.45,1014.92,105.0,-175.0,-35.0
66823,-5.25,-22.45,1014.92,105.0,-175.0,-35.0
66853,-5.25,-22.45,1014.92,105.0,-175.0,-17.5
66882,-5.12,-22.45,1014.92,105.0,-175.0,-35.0
66912,-5.25,-22.45,1014.92,122.5,-175.0,-35.0
66941,-5.25,-22.45,1014.92,105.0,-192.5,-35.0
66970,-5.12,-22.45,1015.04,122.5,-175.0,-35.0
66999,-5.12,-22.45,1015.04,122.5,-192.5,-35.0
67028,-5.12,-22.45,1015.04,122.5,-192.5,-35.0
67057,-5.12,-22.45,1015.04,140.0,-192.5,-17.5
67086,-5.12,-22.45,1015.04,122.5,-175.0,-17.5
67116,-5.12,-22.45,1015.04,105.0,-175.0,-17.5
67145,-5.12,-22.45,1015.04,122.5,-157.5,-17.5
67175,-5.25,-22.45,1015.04,122.5,-175.0,-17.5
67204,-5.12,-22.45,1015.04,122.5,-192.5,-17.5
67234,-5.12,-22.45,1014.92,122.5,-175.0,-35.0
67263,-5.12,-22.45,1014.92,122.5,-192.5,-35.0
67293,-5.12,-22.45,1014.92,122.5,-192.5,-17.5
67322,-5.12,-22.45,1014.92,105.0,-157.5,-35.0
67352,-5.12,-22.45,1014.8,105.0,-192.5,-35.0
67381,-5.12,-22.57,1014.8,105.0,-192.5,-17.5
67411,-5.12,-22.57,1014.8,122.5,-192.5,-17.5
67440,-5.12,-22.45,1014.67,105.0,-192.5,-35.0
67470,-5.12,-22.57,1014.67,87.5,-192.5,-35.0
67499,-5.12,-22.57,1014.67,105.0,-192.5,-17.5
67528,-5.12,-22.57,1014.55,105.0,-175.0,-35.0
67557,-5.12,-22.57,1014.55,122.5,-157.5,-35.0
67586,-5.12,-22.57,1014.55,122.5,-175.0,-17.5
67616,-5.12,-22.57,1014.55,122.5,-192.5,-35.0
67645,-5.12,-22.45,1014.43,122.5,-175.0,-17.5
67675,-5.12,-22.57,1014.43,105.0,-175.0,-35.0
67704,-5.12,-22.57,1014.43,122.5,-175.0,-35.0
67734,-5.12,-22.45,1014.43,122.5,-175.0,-52.5
67763,-5.12,-22.45,1014.43,140.0,-192.5,-35.0
67793,-5.12,-22.45,1014.43,122.5,-192.5,-35.0
67822,-5.12,-22.45,1014.43,140.0,-175.0,-17.5
67852,-5.12,-22.45,1014.43,122.5,-192.5,-17.5
67881,-5.12,-22.45,1014.55,122.5,-192.5,-35.0
67911,-5.12,-22.45,1014.55,105.0,-175.0,-52.5
67940,-5.12,-22.45,1014.55,105.0,-192.5,-35.0
67970,-5.12,-22.45,1014.55,105.0,-175.0,-35.0
67999,-5.12,-22.45,1014.43,105.0,-157.5,-17.5
68029,-5.12,-22.45,1014.43,122.5,-175.0,-35.0
68058,-5.12,-22.45,1014.43,122.5,-175.0,-52.5
68087,-5.12,-22.57,1014.31,105.0,-175.0,-17.5
68116,-5.12,-22.45,1014.31,122.5,-175.0,-17.5
68145,-5.12,-22.45,1014.31,105.0,-192.5,-35.0
68175,-5.12,-22.45,1014.31,122.5,-175.0,-35.0
68204,-5.12,-22.45,1014.31,122.5,-175.0,-17.5
68234,-5.12,-22.45,1014.31,105.0,-157.5,-17.5
68263,-5.12,-22.45,1014.31,122.5,-175.0,-17.5
68293,-5.12,-22.45,1014.31,122.5,-175.0,-35.0
68322,-5.12,-22.45,1014.31,122.5,-175.0,-35.0
68352,-5.12,-22.45,1014.43,105.0,-175.0,-35.0
68381,-5.12,-22.45,1014.55,122.5,-157.5,-35.0
68411,-5.12,-22.45,1014.55,105.0,-175.0,-35.0
68440,-5.12,-22.45,1014.55,105.0,-175.0,-17.5
68470,-5.12,-22.45,1014.55,105.0,-192.5,-35.0
68499,-5.12,-22.45,1014.67,122.5,-192.5,-35.0
68529,-5.12,-22.45,1014.67,105.0,-175.0,-52.5
68558,-5.12,-22.45,1014.8,105.0,-157.5,-35.0
68587,-5.12,-22.45,1014.8,122.5,-175.0,-17.5
68616,-5.12,-22.45,1014.8,122.5,-192.5,-35.0
68645,-5.12,-22.45,1014.8,122.5,-157.5,-17.5
68675,-5.25,-22.45,1014.8,122.5,-175.0,-17.5
68704,-5.12,-22.45,1014.8,122.5,-192.5,-35.0
68734,-5.25,-22.45,1014.67,122.5,-175.0,-35.0
68763,-5.12,-22.45,1014.67,105.0,-175.0,-17.5
68793,-5.12,-22.45,1014.67,140.0,-175.0,-35.0
68822,-5.12,-22.45,1014.67,122.5,-175.0,-17.5
68852,-5.12,-22.45,1014.55,122.5,-157.5,-17.5
68881,-5.12,-22.45,1014.55,105.0,-175.0,-17.5
68911,-5.12,-22.45,1014.67,122.5,-175.0,-17.5
68940,-5.12,-22.57,1014.67,122.5,-175.0,-17.5
68970,-5.12,-22.57,1014.67,105.0,-175.0,-35.0
68999,-5.12,-22.57,1014.67,122.5,-175.0,-35.0
69029,-5.12,-22.45,1014.67,122.5,-175.0,-35.0
69058,-5.12,-22.45,1014.8,140.0,-192.5,-35.0
69087,-5.25,-22.57,1014.8,122.5,-192.5,-17.5
69116,-5.25,-22.57,1014.8,122.5,-175.0,-17.5
69145,-5.25,-22.57,1014.8,105.0,-175.0,-17.5
69175,-5.25,-22.45,1014.8,122.5,-192.5,-35.0
69204,-5.25,-22.57,1014.8,105.0,-192.5,-35.0
69234,-5.25,-22.45,1014.8,122.5,-157.5,-35.0
69263,-5.25,-22.45,1014.8,140.0,-175.0,-35.0
69293,-5.25,-22.45,1014.8,122.5,-175.0,-17.5
69322,-5.25,-22.45,1014.8,105.0,-175.0,-35.0
69352,-5.25,-22.57,1014.8,105.0,-175.0,-35.0
69381,-5.12,-22.45,1014.92,87.5,-175.0,-17.5
69411,-5.25,-22.45,1014.92,122.5,-192.5,-17.5
69440,-5.25,-22.45,1015.04,122.5,-175.0,-17.5
69470,-5.25,-22.45,1015.04,122.5,-175.0,-17.5
69499,-5.25,-22.45,1015.04,122.5,-175.0,-35.0
69529,-5.25,-22.45,1015.04,122.5,-192.5,-17.5
69558,-5.25,-22.45,1014.92,122.5,-175.0,-17.5
69587,-5.25,-22.45,1015.04,122.5,-175.0,-35.0
69616,-5.25,-22.45,1015.04,122.5,-192.5,-17.5
69645,-5.25,-22.45,1015.04,122.5,-175.0,-17.5
69675,-5.25,-22.45,1015.04,122.5,-175.0,-17.5
69704,-5.25,-22.45,1015.04,122.5,-192.5,-17.5
69734,-5.25,-22.45,1015.04,122.5,-175.0,-35.0
69763,-5.25,-22.45,1015.04,122.5,-175.0,-17.5
69793,-5.25,-22.45,1015.04,122.5,-175.0,-17.5
69822,-5.25,-22.45,1015.04,105.0,-175.0,-17.5
69852,-5.25,-22.45,1015.04,122.5,-175.0,-35.0
69881,-5.25,-22.45,1015.16,122.5,-175.0,-35.0
69911,-5.25,-22.45,1015.04,122.5,-175.0,-17.5
69940,-5.25,-22.45,1015.04,122.5,-192.5,-35.0
69970,-5.25,-22.45,1015.04,105.0,-175.0,-17.5
69999,-5.25,-22.45,1015.04,105.0,-175.0,-17.5
70029,-5.25,-22.45,1015.04,122.5,-175.0,-17.5
70058,-5.25,-22.45,1015.04,122.5,-192.5,-17.5
70087,-5.37,-22.45,1015.04,122.5,-175.0,-35.0
70116,-5.37,-22.45,1015.16,122.5,-175.0,-17.5
70145,-5.37,-22.45,1015.16,122.5,-157.5,-17.5
70174,-5.37,-22.45,1015.16,105.0,-175.0,-35.0
70203,-5.37,-22.45,1015.16,122.5,-192.5,-35.0
70233,-5.37,-22.45,1015.16,122.5,-175.0,-17.5
70262,-5.37,-22.45,1015.28,122.5,-175.0,-35.0
70292,-5.25,-22.45,1015.28,122.5,-192.5,-52.5
70321,-5.37,-22.45,1015.28,140.0,-192.5,-35.0
70351,-5.37,-22.45,1015.28,122.5,-175.0,-17.5
70380,-5.37,-22.45,1015.16,122.5,-175.0,-17.5
70410,-5.37,-22.45,1015.16,105.0,-175.0,0.0
70439,-5.37,-22.45,1015.28,105.0,-175.0,-17.5
70469,-5.37,-22.45,1015.16,105.0,-175.0,-35.0
70498,-5.37,-22.45,1015.16,87.5,-192.5,-35.0
70528,-5.37,-22.45,1015.16,105.0,-157.5,-17.5
70557,-5.37,-22.45,1015.04,122.5,-192.5,-35.0
70586,-5.37,-22.45,1015.04,122.5,-192.5,-35.0
70615,-5.37,-22.45,1015.04,122.5,-192.5,-17.5
70644,-5.37,-22.45,1015.04,122.5,-157.5,-35.0
70674,-5.37,-22.45,1015.04,122.5,-175.0,-35.0
70703,-5.37,-22.45,1015.04,122.5,-157.5,-35.0
70733,-5.37,-22.45,1015.04,122.5,-175.0,-35.0
70762,-5.37,-22.45,1015.04,122.5,-175.0,-35.0
70792,-5.37,-22.45,1015.04,122.5,-192.5,-17.5
70821,-5.37,-22.45,1015.04,140.0,-175.0,-35.0
70851,-5.37,-22.45,1015.04,122.5,-175.0,-35.0
70880,-5.37,-22.45,1015.04,122.5,-192.5,-35.0
70910,-5.37,-22.45,1015.04,122.5,-175.0,-35.0
70939,-5.37,-22.45,1015.04,122.5,-175.0,-35.0
70969,-5.37,-22.45,1015.04,122.5,-192.5,-35.0
70998,-5.37,-22.45,1015.04,122.5,-192.5,-35.0
71027,-5.37,-22.33,1015.04,122.5,-175.0,-17.5
71056,-5.25,-22.33,1015.04,140.0,-175.0,-17.5
71085,-5.25,-22.33,1015.04,105.0,-175.0,-35.0
71114,-5.37,-22.33,1015.04,105.0,-175.0,-35.0
71143,-5.37,-22.33,1015.04,105.0,-175.0,-35.0
71173,-5.37,-22.33,1014.92,122.5,-175.0,-35.0
71202,-5.37,-22.33,1014.92,122.5,-192.5,-17.5
71232,-5.25,-22.33,1014.92,122.5,-175.0,-17.5
71261,-5.37,-22.33,1014.8,122.5,-175.0,-17.5
71291,-5.37,-22.33,1014.8,122.5,-175.0,-17.5
71320,-5.37,-22.33,1014.8,105.0,-175.0,-35.0
71350,-5.37,-22.33,1014.67,105.0,-192.5,-17.5
71379,-5.37,-22.33,1014.55,122.5,-192.5,-17.5
71409,-5.37,-22.33,1014.55,122.5,-175.0,-17.5
71438,-5.37,-22.33,1014.55,122.5,-192.5,-35.0
71467,-5.25,-22.33,1014.43,122.5,-175.0,-35.0
71496,-5.25,-22.45,1014.43,122.5,-175.0,-35.0
71525,-5.37,-22.45,1014.43,122.5,-157.5,-35.0
71554,-5.37,-22.45,1014.31,122.5,-175.0,-52.5
71583,-5.37,-22.45,1014.31,122.5,-192.5,-35.0
71613,-5.37,-22.45,1014.31,122.5,-175.0,-17.5
71642,-5.37,-22.45,1014.31,105.0,-192.5,-35.0
71672,-5.37,-22.45,1014.31,122.5,-192.5,-35.0
71701,-5.37,-22.45,1014.43,122.5,-175.0,-17.5
71731,-5.37,-22.45,1014.43,122.5,-192.5,-17.5
71760,-5.37,-22.45,1014.55,122.5,-192.5,-17.5
71790,-5.37,-22.45,1014.43,122.5,-175.0,-35.0
71819,-5.37,-22.45,1014.43,105.0,-175.0,-17.5
71849,-5.25,-22.45,1014.43,122.5,-175.0,-35.0
71878,-5.37,-22.45,1014.43,122.5,-175.0,-17.5
71907,-5.25,-22.45,1014.31,122.5,-175.0,-35.0
71936,-5.25,-22.45,1014.31,122.5,-175.0,-17.5
71965,-5.25,-22.45,1014.43,122.5,-175.0,-35.0
71995,-5.25,-22.45,1014.31,105.0,-192.5,-35.0
72024,-5.25,-22.45,1014.43,105.0,-175.0,-17.5
72054,-5.25,-22.45,1014.31,122.5,-192.5,-35.0
72083,-5.25,-22.45,1014.31,122.5,-175.0,-35.0
72113,-5.25,-22.45,1014.31,122.5,-157.5,-35.0
72142,-5.25,-22.45,1014.31,122.5,-175.0,-17.5
72172,-5.25,-22.45,1014.31,122.5,-157.5,-17.5
72201,-5.25,-22.45,1014.19,105.0,-192.5,-52.5
72231,-5.25,-22.45,1014.19,105.0,-175.0,-35.0
72260,-5.25,-22.45,1014.19,105.0,-157.5,-17.5
72290,-5.25,-22.45,1014.19,122.5,-175.0,-17.5
72319,-5.25,-22.57,1014.06,122.5,-175.0,-35.0
72349,-5.25,-22.57,1014.06,122.5,-175.0,-35.0
72378,-5.37,-22.57,1013.94,122.5,-175.0,-35.0
72407,-5.37,-22.57,1013.94,122.5,-175.0,-35.0
72436,-5.37,-22.57,1014.06,122.5,-157.5,-35.0
72465,-5.37,-22.57,1014.06,122.5,-175.0,-35.0
72495,-5.37,-22.57,1014.06,122.5,-175.0,-35.0
72524,-5.37,-22.57,1014.06,105.0,-157.5,-17.5
72554,-5.37,-22.57,1014.06,105.0,-192.5,-17.5
72583,-5.37,-22.57,1014.06,105.0,-175.0,-35.0
72613,-5.37,-22.45,1014.19,122.5,-157.5,-35.0
72642,-5.37,-22.45,1014.19,105.0,-175.0,-35.0
72672,-5.37,-22.45,1014.31,122.5,-192.5,-35.0
72701,-5.37,-22.45,1014.31,105.0,-175.0,-35.0
72731,-5.25,-22.45,1014.31,105.0,-192.5,-35.0
72760,-5.25,-22.45,1014.31,122.5,-175.0,-17.5
72790,-5.25,-22.45,1014.31,140.0,-192.5,-35.0
72819,-5.25,-22.45,1014.43,122.5,-192.5,-35.0
72848,-5.25,-22.45,1014.43,122.5,-192.5,-35.0
72877,-5.25,-22.45,1014.55,122.5,-175.0,-35.0
72906,-5.25,-22.45,1014.55,122.5,-157.5,-17.5
72936,-5.25,-22.45,1014.55,122.5,-175.0,-35.0
72965,-5.25,-22.45,1014.67,122.5,-175.0,-17.5
72995,-5.25,-22.45,1014.67,105.0,-192.5,-35.0
73024,-5.25,-22.45,1014.8,122.5,-192.5,-35.0
73054,-5.25,-22.45,1014.8,122.5,-175.0,-35.0
73083,-5.25,-22.45,1014.8,105.0,-192.5,-35.0
73113,-5.12,-22.45,1014.92,122.5,-175.0,-35.0
73142,-5.25,-22.45,1014.92,122.5,-192.5,-17.5
73172,-5.12,-22.45,1015.04,122.5,-192.5,-35.0
73201,-5.12,-22.33,1015.04,122.5,-192.5,-35.0
73231,-5.25,-22.45,1015.04,105.0,-175.0,-35.0
73260,-5.12,-22.45,1015.04,105.0,-175.0,-35.0
73289,-5.25,-22.45,1015.04,122.5,-175.0,-17.5
73318,-5.12,-22.45,1015.04,122.5,-175.0,-17.5
73347,-5.25,-22.45,1015.16,122.5,-175.0,-17.5
73377,-5.25,-22.45,1015.16,122.5,-175.0,-17.5
73406,-5.25,-22.45,1015.28,105.0,-192.5,-52.5
73436,-5.25,-22.45,1015.28,105.0,-175.0,-35.0
73465,-5.25,-22.45,1015.28,105.0,-175.0,-35.0
73495,-5.25,-22.45,1015.28,140.0,-175.0,-35.0
73524,-5.25,-22.45,1015.28,122.5,-175.0,-35.0
73554,-5.12,-22.45,1015.28,122.5,-175.0,-35.0
73583,-5.12,-22.45,1015.28,105.0,-192.5,-35.0
73613,-5.25,-22.45,1015.28,122.5,-175.0,-35.0
73642,-5.25,-22.45,1015.28,105.0,-175.0,-35.0
73671,-5.25,-22.45,1015.28,122.5,-192.5,-35.0
73700,-5.25,-22.57,1015.28,122.5,-175.0,-35.0
73729,-5.25,-22.57,1015.28,122.5,-175.0,-17.5
73759,-5.25,-22.57,1015.16,122.5,-175.0,-35.0
73788,-5.25,-22.45,1015.16,122.5,-175.0,-35.0
73818,-5.25,-22.57,1015.16,105.0,-175.0,-35.0
73847,-5.37,-22.45,1015.16,122.5,-192.5,-35.0
73877,-5.37,-22.57,1015.16,122.5,-175.0,-35.0
73906,-5.37,-22.57,1015.04,122.5,-175.0,-35.0
73936,-5.25,-22.57,1015.04,105.0,-192.5,-35.0
73965,-5.25,-22.57,1015.04,122.5,-192.5,-35.0
73995,-5.25,-22.57,1015.04,122.5,-192.5,-35.0
74024,-5.25,-22.57,1015.04,105.0,-175.0,-17.5
74054,-5.25,-22.57,1015.04,122.5,-157.5,-35.0
74083,-5.25,-22.57,1015.04,105.0,-175.0,-17.5
74112,-5.25,-22.57,1015.04,122.5,-175.0,-17.5
74141,-5.25,-22.57,1015.04,122.5,-175.0,-35.0
74170,-5.12,-22.57,1015.04,105.0,-175.0,-35.0
74200,-5.12,-22.45,1015.04,105.0,-192.5,-35.0
74229,-5.25,-22.45,1015.04,122.5,-175.0,-17.5
74259,-5.12,-22.45,1015.04,140.0,-175.0,-35.0
74288,-5.25,-22.45,1015.04,140.0,-175.0,-35.0
74318,-5.25,-22.45,1015.04,122.5,-175.0,-17.5
74347,-5.25,-22.45,1015.16,105.0,-175.0,-35.0
74377,-5.25,-22.45,1015.16,105.0,-175.0,-35.0
74406,-5.25,-22.45,1015.04,122.5,-175.0,-35.0
74436,-5.37,-22.45,1015.04,122.5,-175.0,-17.5
74465,-5.37,-22.57,1015.04,122.5,-175.0,-35.0
74495,-5.25,-22.45,1015.04,122.5,-192.5,-35.0
74524,-5.25,-22.45,1014.92,122.5,-192.5,-35.0
74553,-5.25,-22.45,1015.04,105.0,-175.0,-35.0
74582,-5.25,-22.45,1015.04,105.0,-175.0,-17.5
74611,-5.25,-22.45,1015.04,122.5,-175.0,-35.0
74641,-5.25,-22.45,1015.04,122.5,-175.0,-35.0
74670,-5.25,-22.45,1015.04,105.0,-192.5,-35.0
74700,-5.25,-22.45,1015.04,122.5,-175.0,-35.0
74729,-5.25,-22.45,1015.04,87.5,-175.0,-35.0
74759,-5.37,-22.45,1014.92,122.5,-175.0,-35.0
74788,-5.37,-22.45,1014.92,105.0,-175.0,-35.0
74818,-5.37,-22.45,1015.04,122.5,-175.0,-17.5
74847,-5.37,-22.45,1014.92,122.5,-175.0,-35.0
74877,-5.37,-22.45,1015.04,140.0,-192.5,-35.0
74906,-5.25,-22.45,1014.92,140.0,-175.0,-35.0
74936,-5.25,-22.45,1015.04,122.5,-175.0,-35.0
74965,-5.25,-22.45,1014.92,105.0,-175.0,-35.0
74994,-5.25,-22.45,1014.92,105.0,-157.5,-35.0
75023,-5.25,-22.45,1014.92,122.5,-175.0,-35.0
75052,-5.37,-22.45,1014.92,140.0,-175.0,-35.0
75081,-5.37,-22.45,1014.8,140.0,-175.0,-52.5
75110,-5.25,-22.45,1014.8,122.5,-175.0,-35.0
75140,-5.37,-22.45,1014.8,105.0,-175.0,-17.5
75169,-5.37,-22.45,1014.8,122.5,-157.5,-17.5
75199,-5.37,-22.45,1014.8,105.0,-175.0,-35.0
75228,-5.37,-22.45,1014.8,122.5,-192.5,-35.0
75258,-5.37,-22.45,1014.8,105.0,-175.0,-35.0
75287,-5.37,-22.45,1014.8,122.5,-192.5,-35.0
75317,-5.25,-22.45,1014.8,122.5,-175.0,-35.0
75346,-5.25,-22.45,1014.8,122.5,-175.0,-35.0
75376,-5.25,-22.45,1014.67,122.5,-175.0,-35.0
75405,-5.25,-22.45,1014.67,140.0,-175.0,-35.0
75435,-5.25,-22.45,1014.67,140.0,-175.0,-35.0
75464,-5.25,-22.45,1014.67,122.5,-175.0,-35.0
75493,-5.25,-22.45,1014.67,105.0,-175.0,-35.0
75522,-5.25,-22.45,1014.67,122.5,-175.0,-35.0
75551,-5.25,-22.45,1014.8,122.5,-192.5,-35.0
75581,-5.25,-22.45,1014.8,105.0,-175.0,-35.0
75610,-5.25,-22.45,1014.8,122.5,-192.5,-17.5
75640,-5.25,-22.45,1014.8,105.0,-192.5,-35.0
75669,-5.25,-22.45,1014.8,122.5,-175.0,-35.0
75699,-5.25,-22.45,1014.8,122.5,-192.5,-17.5
75728,-5.25,-22.57,1014.8,122.5,-192.5,-17.5
75758,-5.25,-22.57,1014.8,122.5,-157.5,-35.0
75787,-5.25,-22.57,1014.8,122.5,-157.5,-52.5
75817,-5.25,-22.57,1014.8,140.0,-175.0,-17.5
75846,-5.25,-22.57,1014.8,122.5,-175.0,-35.0
75876,-5.25,-22.57,1014.8,122.5,-157.5,-17.5
75905,-5.25,-22.45,1014.55,105.0,-175.0,-17.5
75934,-5.37,-22.45,1014.55,122.5,-192.5,-35.0
75963,-5.37,-22.57,1014.55,122.5,-175.0,-35.0
75992,-5.37,-22.57,1014.43,122.5,-192.5,-17.5
76022,-5.25,-22.57,1014.43,122.5,-192.5,-17.5
76051,-5.37,-22.57,1014.43,105.0,-175.0,-35.0
76081,-5.25,-22.57,1014.43,105.0,-192.5,-35.0
76110,-5.37,-22.57,1014.43,122.5,-157.5,-17.5
76140,-5.37,-22.57,1014.43,122.5,-157.5,-17.5
76169,-5.37,-22.57,1014.43,122.5,-175.0,-35.0
76199,-5.37,-22.57,1014.43,105.0,-175.0,-52.5
76228,-5.37,-22.57,1014.55,122.5,-175.0,-35.0
76258,-5.25,-22.57,1014.43,140.0,-157.5,-35.0
76287,-5.25,-22.57,1014.43,105.0,-175.0,-35.0
76317,-5.25,-22.57,1014.43,122.5,-175.0,-17.5
76346,-5.25,-22.57,1014.43,122.5,-175.0,-35.0
76376,-5.25,-22.57,1014.31,122.5,-192.5,-35.0
76405,-5.25,-22.45,1014.31,122.5,-175.0,-17.5
76434,-5.37,-22.45,1014.31,105.0,-192.5,-35.0
76463,-5.25,-22.45,1014.31,105.0,-192.5,-35.0
76492,-5.25,-22.45,1014.31,122.5,-175.0,-35.0
76522,-5.12,-22.45,1014.31,122.5,-175.0,-35.0
76551,-5.12,-22.45,1014.31,105.0,-175.0,-35.0
76581,-5.25,-22.57,1014.31,105.0,-175.0,-17.5
76610,-5.12,-22.57,1014.31,122.5,-175.0,-17.5
76640,-5.25,-22.57,1014.31,122.5,-175.0,-52.5
76669,-5.25,-22.45,1014.43,122.5,-175.0,-52.5
76699,-5.25,-22.57,1014.43,105.0,-175.0,-35.0
76728,-5.25,-22.45,1014.43,122.5,-175.0,-35.0
76758,-5.25,-22.57,1014.43,122.5,-192.5,-35.0
76787,-5.25,-22.45,1014.43,105.0,-192.5,-17.5
76817,-5.25,-22.45,1014.55,122.5,-175.0,-35.0
76846,-5.25,-22.45,1014.55,122.5,-175.0,-35.0
76875,-5.25,-22.57,1014.55,105.0,-175.0,-17.5
76904,-5.25,-22.57,1014.67,105.0,-175.0,-35.0
76933,-5.25,-22.45,1014.67,105.0,-175.0,-35.0
76962,-5.25,-22.45,1014.8,105.0,-175.0,-35.0
76991,-5.25,-22.45,1014.8,105.0,-175.0,-35.0
77021,-5.25,-22.45,1014.8,105.0,-175.0,-35.0
77050,-5.25,-22.45,1014.8,122.5,-175.0,-35.0
77080,-5.25,-22.45,1014.8,140.0,-175.0,-35.0
77109,-5.25,-22.45,1014.8,122.5,-175.0,-35.0
77139,-5.25,-22.45,1014.92,122.5,-175.0,-35.0
77168,-5.25,-22.45,1014.92,105.0,-192.5,-35.0
77198,-5.25,-22.45,1015.04,105.0,-175.0,-35.0
77227,-5.25,-22.45,1015.04,122.5,-175.0,-35.0
