acc_x,acc_y,acc_z,gyro_x,gyro_y,gyro_z
-9.03,491.54,872.54,980.0,35.0,1330.0
-8.3,491.78,872.3,1032.5,-630.0,1277.5
-7.32,492.51,871.69,577.5,-2082.5,560.0
-6.34,493.12,871.57,455.0,-3307.5,-210.0
-5.12,493.37,872.06,402.5,-3132.5,-927.5
-4.39,493.37,872.54,875.0,-2467.5,-1452.5
-4.39,493.25,872.3,507.5,-2065.0,-1627.5
-5.25,493.0,871.81,175.0,-2170.0,-1732.5
-6.71,492.64,871.2,402.5,-2292.5,-1435.0
-8.54,492.15,870.35,350.0,-2152.5,-647.5
-10.49,492.15,869.25,-437.5,-1260.0,-245.0
-12.57,492.15,868.52,-1540.0,-822.5,280.0
-14.52,491.9,868.52,-1715.0,-787.5,1172.5
-15.74,491.54,869.25,-1662.5,-472.5,2152.5
-16.1,490.93,870.59,-892.5,385.0,2992.5
-15.74,490.44,871.93,227.5,1172.5,3377.5
-15.01,490.44,872.54,1207.5,1330.0,3202.5
-14.15,491.05,872.18,1365.0,1207.5,2747.5
-13.3,491.9,871.08,52.5,1435.0,2222.5
-12.2,492.39,870.35,-1470.0,1330.0,1732.5
-10.86,492.39,870.71,-1190.0,507.5,1417.5
-9.39,492.03,871.57,105.0,-157.5,1470.0
-7.81,491.9,871.81,630.0,-140.0,1417.5
-6.59,492.27,871.32,-525.0,227.5,770.0
-5.86,492.88,871.08,-1487.5,-350.0,87.5
-5.61,493.12,871.2,-787.5,-1627.5,-35.0
-5.12,492.76,871.81,87.5,-2205.0,227.5
-4.27,492.51,872.54,577.5,-1610.0,367.5
-3.42,492.51,872.67,35.0,-787.5,140.0
-3.17,492.64,872.54,-175.0,-1032.5,-332.5
-3.66,492.64,872.54,-70.0,-1557.5,-525.0
-4.39,492.51,872.54,-490.0,-1645.0,-367.5
-5.12,491.9,873.28,-542.5,-1470.0,175.0
-5.61,490.81,874.74,945.0,-1365.0,1085.0
-5.73,489.95,875.47,1995.0,-1312.5,1662.5
-5.61,489.46,875.47,1347.5,-962.5,1627.5
-5.61,489.1,875.23,875.0,-910.0,1522.5
-5.61,488.73,874.86,1137.5,-1172.5,1785.0
-5.12,488.73,874.5,805.0,-1277.5,1610.0
-4.51,488.61,874.37,-297.5,-892.5,1102.5
-3.9,488.37,874.98,-402.5,-507.5,892.5
-3.42,487.76,875.96,577.5,-490.0,1120.0
-2.68,487.27,876.57,1767.5,-980.0,1277.5
-2.07,487.27,876.45,2082.5,-1050.0,1190.0
-1.46,487.51,875.72,1295.0,-402.5,1050.0
-0.85,488.0,874.5,315.0,-210.0,630.0
-0.24,488.37,873.28,-210.0,-927.5,87.5
0.24,488.73,872.42,-612.5,-1540.0,-315.0
0.73,488.98,872.06,-1155.0,-805.0,-472.5
0.98,489.22,871.93,-1277.5,-280.0,-402.5
0.98,489.71,871.93,-857.5,-1085.0,-420.0
1.1,490.2,872.18,-210.0,-1540.0,-420.0
1.46,490.68,872.42,-17.5,-980.0,-385.0
2.32,491.17,872.3,-105.0,-1155.0,-752.5
3.29,491.78,872.18,192.5,-2030.0,-1470.0
4.27,492.15,872.3,0.0,-1522.5,-1925.0
5.12,492.15,872.54,-735.0,-805.0,-2100.0
5.73,491.78,873.28,-227.5,-1400.0,-2310.0
6.1,490.68,874.5,1347.5,-1732.5,-2292.5
5.86,489.59,875.23,1942.5,-525.0,-1802.5
4.88,488.73,874.98,1190.0,822.5,-1155.0
3.54,488.37,874.37,910.0,735.0,-875.0
2.07,488.61,873.76,490.0,717.5,-1067.5
0.37,488.85,873.03,-980.0,1435.0,-1120.0
-1.46,488.73,872.79,-1207.5,1102.5,-332.5
-2.68,488.73,872.79,-157.5,-210.0,297.5
-2.93,488.98,872.67,-822.5,-787.5,-315.0
-2.93,489.22,873.03,-1470.0,-577.5,-840.0
-3.05,488.98,874.01,-630.0,-997.5,-612.5
-2.93,488.73,874.98,280.0,-1680.0,-455.0
-2.68,488.49,876.2,297.5,-1592.5,-507.5
-2.2,488.12,877.42,980.0,-980.0,-245.0
-1.59,487.63,878.28,2117.5,-1120.0,140.0
-1.1,487.51,878.16,2222.5,-1365.0,227.5
-0.61,487.51,877.55,1575.0,-1155.0,175.0
-0.49,487.63,876.69,1085.0,-1155.0,227.5
-0.73,487.51,875.96,822.5,-1417.5,402.5
-1.22,487.39,875.11,630.0,-1435.0,1032.5
-2.07,487.27,874.5,157.5,-980.0,1680.0
-2.93,487.27,874.01,245.0,-1347.5,2222.5
-3.42,487.51,873.76,717.5,-2152.5,2712.5
-3.17,488.0,873.52,560.0,-1890.0,2782.5
-2.56,488.61,873.64,-140.0,-857.5,2327.5
-1.71,489.1,874.01,-280.0,-455.0,1540.0
-1.1,489.22,874.62,420.0,-910.0,1120.0
-0.73,489.22,875.35,805.0,-595.0,1120.0
-0.24,488.98,876.08,1277.5,297.5,1032.5
0.49,488.98,876.45,1505.0,367.5,1190.0
1.46,488.98,876.2,1645.0,192.5,945.0
2.56,489.22,875.72,892.5,87.5,437.5
3.05,488.98,875.47,980.0,245.0,735.0
3.29,488.61,875.35,1802.5,595.0,2975.0
4.64,489.22,874.5,1540.0,857.5,1557.5
5.86,489.95,873.15,87.5,-297.5,-735.0
6.83,490.07,872.42,210.0,-1820.0,-315.0
8.66,490.2,872.06,472.5,-647.5,-227.5
10.49,490.44,871.2,0.0,-472.5,-787.5
11.96,490.81,869.49,122.5,-2642.5,-1575.0
12.69,491.42,867.66,-315.0,-4970.0,-2030.0
12.57,491.66,866.57,-1715.0,-6405.0,-2170.0
11.96,491.54,867.18,927.5,-7752.5,-262.5
11.35,491.29,868.64,7157.5,-9887.5,1820.0
11.47,492.15,869.13,5845.0,-7017.5,1785.0
11.35,493.61,868.4,910.0,-700.0,1662.5
10.98,494.95,867.42,-1802.5,2047.5,332.5
10.13,495.08,867.18,87.5,507.5,-1610.0
9.27,493.98,867.18,3867.5,-2415.0,-1295.0
9.27,492.76,867.18,4830.0,-1960.0,-1330.0
9.27,491.78,866.57,2922.5,192.5,-1960.0
8.91,491.05,865.83,875.0,420.0,-2222.5
7.69,490.68,865.59,-2240.0,2415.0,-1522.5
6.34,490.44,865.96,-5512.5,4970.0,-402.5
5.0,490.2,867.18,-7472.5,6195.0,1032.5
4.27,489.59,869.49,-4987.5,4252.5,2257.5
4.39,489.22,871.81,-892.5,2590.0,3430.0
5.25,489.59,873.28,70.0,3132.5,4095.0
6.83,490.44,874.13,35.0,3675.0,3850.0
8.42,491.66,874.5,665.0,4357.5,2520.0
9.76,492.76,874.5,630.0,4620.0,1487.5
10.61,493.86,874.25,857.5,5425.0,280.0
10.61,494.47,873.52,490.0,5530.0,-542.5
9.76,494.47,872.54,1050.0,4235.0,-1050.0
8.54,494.1,870.96,630.0,2747.5,-1242.5
6.95,493.37,869.25,-857.5,1890.0,-1155.0
5.25,492.39,868.27,-2397.5,1890.0,-752.5
3.66,491.29,868.27,-3500.0,2765.0,490.0
2.44,490.2,869.01,-3377.5,2712.5,1487.5
1.46,489.22,869.98,-2310.0,2467.5,2240.0
0.98,488.49,871.08,-1312.5,1697.5,3167.5
1.22,488.0,872.06,-647.5,1260.0,3255.0
2.07,487.88,873.03,-420.0,1400.0,2782.5
3.29,488.24,873.76,-735.0,1890.0,2135.0
4.15,488.73,874.25,-910.0,1837.5,1032.5
4.51,488.98,874.37,-892.5,875.0,350.0
4.64,488.98,874.5,-927.5,-17.5,-122.5
4.76,489.22,874.5,-1750.0,-315.0,-577.5
4.51,488.98,875.11,-2590.0,70.0,-542.5
4.27,488.49,876.33,-1137.5,122.5,-17.5
3.9,488.37,876.69,35.0,-332.5,262.5
3.42,488.73,876.45,-402.5,-1050.0,-122.5
2.81,488.98,876.08,-962.5,-1277.5,-210.0
2.2,488.98,876.08,-875.0,-1067.5,192.5
1.59,488.73,876.33,-525.0,-1382.5,315.0
1.22,488.49,876.81,-192.5,-2152.5,332.5
0.98,488.0,877.67,52.5,-1960.0,472.5
0.73,487.51,878.4,472.5,-1312.5,560.0
0.37,487.27,878.4,630.0,-1662.5,665.0
-0.12,487.02,877.91,-70.0,-1662.5,595.0
-0.61,486.9,877.91,-437.5,-1172.5,577.5
-1.34,486.29,878.16,-70.0,-1085.0,1015.0
-1.71,485.8,878.28,507.5,-1400.0,1645.0
-1.71,485.68,877.79,717.5,-1592.5,1785.0
-0.73,486.17,876.94,-280.0,-1662.5,840.0
0.98,487.02,876.45,-1382.5,-1995.0,-1575.0
2.68,487.63,876.2,-1575.0,-3097.5,-3902.5
3.78,488.0,876.33,-2117.5,-3832.5,-5477.5
4.39,488.0,877.06,-2292.5,-2905.0,-5512.5
4.15,487.51,878.16,-1960.0,-1540.0,-5110.0
3.42,486.78,878.89,-577.5,-2467.5,-3570.0
2.56,485.8,879.62,1190.0,-4410.0,-2012.5
2.2,485.19,880.11,1242.5,-3727.5,-1190.0
2.32,484.83,880.23,280.0,-2327.5,-1400.0
2.07,484.46,880.11,577.5,-3062.5,-1872.5
1.59,483.85,879.99,1155.0,-3727.5,-1067.5
1.22,483.61,879.86,542.5,-2782.5,-35.0
0.98,483.12,879.62,437.5,-2257.5,752.5
0.73,482.75,879.38,297.5,-2100.0,1137.5
0.49,482.14,879.13,140.0,-2397.5,1715.0
0.37,481.66,879.25,140.0,-2345.0,2362.5
0.73,481.29,879.62,420.0,-1925.0,2432.5
1.22,481.05,879.86,892.5,-2117.5,2345.0
1.95,480.8,879.86,1032.5,-2292.5,2432.5
2.93,480.92,879.5,752.5,-1820.0,2082.5
3.78,480.8,879.13,332.5,-1400.0,1837.5
4.64,480.56,878.89,647.5,-1417.5,1645.0
5.37,480.44,878.52,787.5,-1487.5,1417.5
6.1,480.56,878.03,0.0,-1137.5,1085.0
6.59,480.56,877.91,-787.5,-752.5,1067.5
7.08,480.44,877.91,-577.5,-752.5,1382.5
7.69,480.56,878.16,35.0,-1050.0,1295.0
8.3,480.92,878.28,-52.5,-1120.0,1207.5
8.78,481.17,878.64,-122.5,-630.0,1260.0
9.27,481.17,879.13,350.0,-262.5,1575.0
9.76,481.41,879.5,647.5,-595.0,1785.0
10.49,481.53,879.5,1015.0,-1207.5,1767.5
11.35,481.78,879.5,1155.0,-1260.0,1680.0
12.32,482.14,879.38,717.5,-1050.0,1417.5
13.18,482.39,879.38,297.5,-840.0,1155.0
13.91,482.39,879.5,665.0,-840.0,1190.0
14.76,482.39,879.38,682.5,-1120.0,910.0
15.62,482.39,879.25,962.5,-1470.0,420.0
16.35,482.51,879.01,735.0,-945.0,140.0
16.84,482.63,878.64,437.5,-577.5,-140.0
17.2,482.63,878.16,122.5,-1067.5,-490.0
17.32,482.39,877.91,17.5,-1487.5,-560.0
17.45,482.02,878.16,0.0,-945.0,-192.5
17.57,481.9,878.16,-175.0,-52.5,87.5
17.81,481.78,878.03,-385.0,-105.0,-70.0
17.93,481.66,878.16,297.5,-1067.5,-402.5
18.06,481.53,878.28,1190.0,-1452.5,-490.0
18.18,481.41,878.16,840.0,-472.5,-262.5
18.3,481.41,877.79,-332.5,857.5,-245.0
18.3,481.41,877.42,-595.0,525.0,-455.0
18.42,481.41,877.18,-472.5,-157.5,-682.5
18.54,481.17,877.42,-402.5,-87.5,-700.0
18.54,480.92,877.79,-175.0,367.5,-560.0
18.54,480.8,878.16,367.5,105.0,-280.0
18.54,480.92,878.28,612.5,-105.0,-122.5
18.67,481.05,878.16,227.5,315.0,-157.5
18.79,481.29,878.03,-297.5,910.0,-157.5
18.79,481.41,878.16,-35.0,630.0,-70.0
19.15,481.53,878.4,682.5,52.5,-122.5
19.64,481.78,878.4,717.5,52.5,-490.0
20.13,481.78,878.52,227.5,280.0,-927.5
20.25,481.53,878.89,262.5,682.5,-770.0
20.5,481.17,879.01,752.5,822.5,-630.0
20.62,480.92,878.64,787.5,577.5,-822.5
20.5,480.8,878.16,647.5,245.0,-1067.5
20.25,480.8,877.42,262.5,490.0,-1120.0
20.01,480.92,876.81,-665.0,507.5,-1137.5
19.89,480.92,876.45,-1225.0,420.0,-1347.5
19.76,480.92,876.57,-1557.5,595.0,-1435.0
19.28,480.8,877.06,-892.5,455.0,-1347.5
19.03,480.8,877.42,-87.5,105.0,-1330.0
18.67,480.92,877.91,70.0,227.5,-1347.5
18.3,480.92,878.16,-52.5,822.5,-1155.0
17.81,480.92,878.4,-210.0,1207.5,-1242.5
17.45,480.68,878.52,-262.5,1067.5,-1312.5
16.96,480.68,878.64,-367.5,1067.5,-1312.5
16.35,480.56,878.64,-245.0,1260.0,-1190.0
15.74,480.56,878.4,-122.5,997.5,-1120.0
15.13,480.44,878.16,-262.5,630.0,-1050.0
14.76,480.44,878.03,-455.0,717.5,-997.5
14.52,480.44,877.91,-490.0,717.5,-1172.5
14.15,480.31,878.16,-490.0,752.5,-1295.0
13.66,480.19,878.28,-297.5,910.0,-1050.0
13.05,480.19,878.28,-542.5,1015.0,-875.0
12.57,480.07,878.4,-665.0,805.0,-875.0
11.96,479.83,878.4,-437.5,630.0,-735.0
11.47,479.46,878.16,-175.0,332.5,-560.0
10.74,479.22,877.91,-17.5,-52.5,-367.5
10.25,479.34,877.67,-717.5,70.0,-507.5
9.76,479.46,877.79,-1522.5,665.0,-787.5
9.27,479.09,878.4,-1032.5,472.5,-612.5
8.78,478.85,879.13,-297.5,280.0,-507.5
8.54,478.85,879.62,-402.5,490.0,-525.0
8.3,478.85,880.11,-630.0,945.0,-665.0
7.93,478.73,880.84,-297.5,980.0,-542.5
7.44,478.48,881.21,367.5,840.0,-227.5
7.08,478.36,880.96,297.5,472.5,-175.0
6.71,478.48,880.6,35.0,87.5,-402.5
6.47,478.48,880.47,175.0,-245.0,-525.0
6.34,478.36,880.23,227.5,-262.5,-507.5
6.22,478.24,879.99,-175.0,17.5,-577.5
6.1,478.24,879.86,-1050.0,105.0,-875.0
5.61,477.87,880.11,-927.5,-262.5,-1032.5
5.12,477.51,880.6,-122.5,-420.0,-787.5
4.51,477.14,880.6,17.5,-315.0,-385.0
3.9,477.02,880.35,-350.0,-577.5,-297.5
3.42,476.9,880.35,-752.5,-560.0,-175.0
2.93,476.65,880.6,-927.5,-140.0,-52.5
2.56,476.41,881.08,-490.0,-280.0,192.5
2.32,476.29,881.45,-17.5,-945.0,455.0
2.44,476.17,882.18,87.5,-770.0,385.0
2.68,476.04,882.79,385.0,-105.0,192.5
2.81,475.92,882.79,542.5,-192.5,332.5
2.93,476.04,882.67,175.0,-455.0,140.0
2.93,476.04,882.67,17.5,-140.0,35.0
2.68,476.17,882.67,332.5,350.0,140.0
2.2,476.17,882.06,262.5,-227.5,280.0
1.71,476.04,881.57,-385.0,-1225.0,175.0
1.46,475.8,881.57,-455.0,-1330.0,280.0
1.34,475.43,882.18,-192.5,-1050.0,665.0
1.22,475.07,882.79,420.0,-962.5,1067.5
1.1,475.07,883.28,455.0,-805.0,1260.0
1.34,474.95,883.65,577.5,-437.5,1242.5
1.71,474.82,883.89,420.0,-157.5,1032.5
1.95,474.82,884.01,595.0,-262.5,647.5
2.32,474.82,884.13,1085.0,-577.5,385.0
2.44,474.82,883.65,1102.5,-682.5,245.0
2.32,474.82,883.04,227.5,-612.5,210.0
2.44,474.82,882.91,-280.0,-542.5,175.0
2.32,474.58,883.28,297.5,-315.0,525.0
2.32,474.58,883.52,840.0,-175.0,735.0
2.44,474.58,883.52,857.5,-262.5,682.5
2.68,474.58,883.16,840.0,-700.0,630.0
2.81,474.7,882.79,682.5,-682.5,560.0
3.05,474.95,882.3,315.0,-297.5,472.5
3.42,475.07,881.94,-315.0,-227.5,245.0
3.78,475.07,882.06,35.0,-507.5,-17.5
4.03,475.07,882.43,717.5,-717.5,35.0
4.39,475.07,882.55,612.5,-367.5,140.0
4.64,475.07,882.67,262.5,-140.0,-35.0
4.76,474.82,882.91,577.5,-700.0,-210.0
4.88,474.58,883.16,647.5,-577.5,52.5
5.0,474.46,883.28,577.5,332.5,175.0
5.0,474.58,883.16,892.5,140.0,175.0
5.0,474.58,882.79,770.0,-735.0,-35.0
5.0,474.7,882.67,245.0,-262.5,-70.0
5.0,474.82,882.79,140.0,472.5,175.0
4.88,474.82,882.55,472.5,-105.0,35.0
4.88,474.95,882.3,822.5,-910.0,-122.5
4.88,474.82,882.3,420.0,-105.0,105.0
4.88,474.82,882.18,-35.0,787.5,280.0
4.64,474.7,882.06,367.5,-105.0,87.5
4.51,474.46,881.82,595.0,-980.0,0.0
4.15,474.21,881.57,175.0,-262.5,367.5
3.78,473.97,880.96,-350.0,297.5,735.0
3.42,474.09,880.47,-945.0,-280.0,735.0
3.54,474.09,880.6,-1557.5,-105.0,490.0
3.78,474.09,881.57,-980.0,385.0,542.5
4.03,474.09,882.3,-70.0,297.5,630.0
4.51,474.58,882.91,105.0,105.0,385.0
5.0,474.82,883.52,-87.5,262.5,-17.5
5.49,474.82,884.26,227.5,700.0,122.5
5.86,474.95,884.38,892.5,1015.0,315.0
6.1,475.19,884.01,787.5,297.5,52.5
6.34,475.31,883.77,542.5,-385.0,-385.0
6.59,475.19,883.65,682.5,-227.5,-437.5
6.47,474.95,883.28,437.5,140.0,-402.5
6.34,474.7,883.04,420.0,-350.0,-472.5
6.1,474.34,882.91,525.0,-560.0,-577.5
5.73,473.97,882.79,700.0,35.0,-437.5
5.12,473.85,882.18,227.5,577.5,-420.0
4.64,473.73,881.45,-560.0,-52.5,-402.5
4.39,473.6,881.33,-630.0,-665.0,-385.0
4.27,473.6,881.33,-927.5,-192.5,-350.0
4.27,473.73,881.82,-1172.5,420.0,-245.0
4.27,473.97,882.43,-682.5,157.5,-472.5
4.15,474.09,883.16,332.5,-542.5,-612.5
4.15,474.09,883.77,752.5,-280.0,-455.0
3.9,474.09,884.26,752.5,297.5,-297.5
3.9,473.97,884.38,700.0,385.0,-245.0
3.9,473.97,884.26,787.5,210.0,-315.0
3.78,473.85,883.65,210.0,525.0,-350.0
3.66,473.97,883.04,-17.5,420.0,-367.5
3.42,473.97,882.67,210.0,-752.5,-612.5
3.17,473.85,882.43,367.5,-1347.5,-577.5
3.17,473.6,882.67,332.5,-525.0,-402.5
3.05,473.48,882.67,52.5,332.5,-175.0
2.93,473.6,882.3,-332.5,140.0,-280.0
2.93,473.73,881.94,-735.0,-385.0,-770.0
2.81,473.73,882.06,-787.5,-577.5,-927.5
2.68,473.6,882.55,-437.5,-87.5,-805.0
2.44,473.48,883.16,-332.5,175.0,-717.5
2.07,473.36,883.77,-17.5,-52.5,-752.5
1.71,473.24,884.26,192.5,192.5,-630.0
1.34,473.12,884.38,280.0,542.5,-437.5
0.85,473.12,884.01,560.0,-17.5,-245.0
0.49,473.24,883.52,315.0,-630.0,-245.0
0.49,473.36,883.28,-297.5,-210.0,-297.5
0.24,473.36,883.4,-630.0,437.5,-175.0
0.12,473.36,883.65,-420.0,245.0,-332.5
0.0,473.12,884.01,87.5,-367.5,-367.5
-0.37,472.87,884.38,472.5,-297.5,-175.0
-0.73,472.87,884.5,525.0,140.0,87.5
-0.98,472.75,884.01,70.0,175.0,245.0
-0.98,472.75,883.65,-262.5,-297.5,87.5
-1.22,472.75,883.4,17.5,-630.0,192.5
-1.1,472.87,883.16,-210.0,-350.0,262.5
-1.1,472.99,883.04,-595.0,-192.5,17.5
-1.34,472.99,883.04,-875.0,-577.5,-87.5
-1.71,472.87,883.52,-280.0,-717.5,105.0
-1.95,472.87,883.52,227.5,-595.0,560.0
-2.2,472.87,883.4,-542.5,-472.5,507.5
-2.2,472.87,883.52,-1032.5,-525.0,227.5
-2.44,472.51,884.13,-262.5,-612.5,542.5
-2.56,472.38,884.62,140.0,-490.0,770.0
-2.44,472.38,884.99,70.0,-525.0,472.5
-2.32,472.26,885.6,-297.5,-367.5,262.5
-2.32,471.9,886.7,245.0,140.0,560.0
-2.32,471.65,887.31,735.0,315.0,927.5
-2.32,471.65,887.31,1225.0,52.5,1032.5
-2.32,471.65,886.94,997.5,-175.0,1015.0
-2.2,471.65,886.45,1015.0,-542.5,910.0
-1.95,471.53,886.21,840.0,-665.0,770.0
-1.71,471.53,885.84,1277.5,-472.5,752.5
-1.46,471.65,885.11,665.0,-52.5,665.0
-1.46,471.9,884.13,-892.5,-262.5,192.5
-1.46,471.77,883.77,-1085.0,-1067.5,52.5
-1.71,471.41,884.26,-507.5,-1085.0,402.5
-1.71,471.29,885.11,140.0,-542.5,700.0
-1.71,471.29,885.72,770.0,-857.5,910.0
-1.71,471.41,886.09,822.5,-927.5,840.0
-1.46,471.41,886.7,927.5,-332.5,892.5
-1.1,471.41,886.94,1207.5,192.5,962.5
-0.73,471.53,886.7,1120.0,35.0,805.0
-0.37,471.65,886.21,560.0,-105.0,507.5
-0.12,471.65,885.96,227.5,157.5,437.5
0.12,471.53,885.96,630.0,-17.5,560.0
0.24,471.41,885.84,1137.5,-892.5,577.5
0.61,471.29,885.6,1295.0,-1242.5,437.5
1.1,471.41,885.48,1505.0,-857.5,402.5
1.34,471.65,884.87,997.5,-507.5,350.0
1.59,471.9,884.26,70.0,-52.5,175.0
1.71,471.9,883.89,-700.0,367.5,-87.5
1.71,471.77,884.26,-647.5,192.5,-245.0
1.83,471.53,884.99,157.5,210.0,-157.5
1.95,471.29,885.6,595.0,350.0,0.0
2.07,471.41,885.96,385.0,595.0,-140.0
2.07,471.41,886.21,490.0,647.5,-262.5
1.95,471.41,886.21,962.5,350.0,-175.0
1.95,471.53,885.84,1050.0,-105.0,-122.5
1.83,471.65,885.35,875.0,-490.0,-227.5
1.83,471.65,884.99,752.5,-577.5,-105.0
1.95,471.9,884.5,542.5,-507.5,-105.0
2.2,472.14,884.13,-140.0,-262.5,-350.0
2.32,472.26,884.01,-280.0,-280.0,-595.0
2.32,472.38,884.26,17.5,-245.0,-647.5
2.2,472.51,884.26,140.0,-297.5,-700.0
1.83,472.51,884.5,70.0,-70.0,-787.5
1.46,472.26,884.74,595.0,35.0,-437.5
0.85,472.02,884.74,1015.0,-87.5,-87.5
0.61,472.02,884.26,490.0,-87.5,-175.0
0.24,472.02,884.01,402.5,-262.5,-280.0
0.0,471.9,883.77,455.0,-315.0,-52.5
-0.24,471.9,883.52,-17.5,192.5,140.0
-0.24,471.9,883.4,-385.0,227.5,87.5
-0.12,472.02,883.4,-17.5,-490.0,-52.5
0.24,472.02,883.65,350.0,-962.5,-280.0
0.49,472.14,883.77,315.0,-490.0,-332.5
0.73,472.26,883.89,87.5,175.0,-192.5
0.85,472.38,883.65,-35.0,-175.0,-437.5
0.85,472.51,883.52,-52.5,-525.0,-805.0
0.73,472.38,883.52,227.5,-367.5,-682.5
0.49,472.51,883.28,122.5,-280.0,-665.0
0.0,472.63,882.91,-385.0,-822.5,-787.5
-0.24,472.38,883.16,-577.5,-910.0,-665.0
-0.61,472.26,883.65,-157.5,-245.0,-52.5
-0.98,472.14,884.01,35.0,122.5,157.5
-1.1,472.38,884.01,525.0,-507.5,-87.5
-1.22,472.38,884.01,577.5,-910.0,-297.5
-1.22,472.26,884.13,490.0,-367.5,-210.0
-1.22,472.14,884.01,-105.0,192.5,-87.5
-1.34,471.77,884.01,-70.0,210.0,-175.0
-1.46,471.53,884.01,-227.5,17.5,-87.5
-1.71,471.41,884.01,-157.5,87.5,87.5
-1.95,471.29,883.89,-420.0,-210.0,122.5
-1.83,471.29,884.01,-87.5,-700.0,87.5
-1.71,471.41,884.38,665.0,-455.0,122.5
-1.46,471.53,884.26,-105.0,245.0,-70.0
-1.34,471.65,884.13,-175.0,-140.0,-385.0
-1.22,471.65,884.13,-87.5,-630.0,-420.0
-1.46,471.65,884.13,-175.0,-105.0,-262.5
-1.59,471.65,883.77,-472.5,105.0,-122.5
-1.83,471.77,883.52,-525.0,-665.0,-122.5
-1.83,471.77,883.77,-157.5,-1102.5,-192.5
-1.95,471.77,884.26,0.0,-437.5,-87.5
-2.07,471.65,884.5,-192.5,70.0,35.0
-2.2,471.41,884.87,122.5,-175.0,87.5
-2.32,471.41,884.87,297.5,-297.5,122.5
-2.44,471.29,884.87,-70.0,-17.5,-17.5
-2.68,471.16,884.74,-35.0,-175.0,70.0
-2.81,470.92,884.74,17.5,-367.5,245.0
-2.81,470.8,884.87,-315.0,140.0,385.0
-2.81,470.68,884.99,-367.5,297.5,472.5
-2.68,470.43,884.99,-332.5,280.0,437.5
-2.44,470.43,884.99,122.5,227.5,577.5
-2.32,470.43,884.62,17.5,-192.5,472.5
-2.2,470.8,884.26,-262.5,-315.0,122.5
-2.07,470.92,884.26,-647.5,-245.0,52.5
-2.2,470.92,884.13,-472.5,-525.0,52.5
-2.2,470.8,884.5,-385.0,-647.5,175.0
-2.07,470.55,885.11,-315.0,-157.5,210.0
-1.95,470.43,885.72,-87.5,52.5,105.0
-1.95,470.19,886.21,455.0,-472.5,105.0
-1.95,469.94,886.45,542.5,-472.5,17.5
-1.95,469.94,886.45,490.0,-367.5,105.0
-1.95,469.82,886.21,577.5,-437.5,35.0
-1.83,469.58,885.96,805.0,-385.0,-52.5
-1.83,469.58,885.23,210.0,-227.5,-245.0
-1.95,469.58,884.5,-612.5,-262.5,-525.0
-2.32,469.46,884.13,-1155.0,-735.0,-542.5
-2.68,469.33,884.38,-875.0,-857.5,-227.5
-3.05,469.09,884.87,-577.5,-437.5,227.5
-3.29,468.97,885.48,-420.0,-385.0,350.0
-3.54,468.97,886.21,210.0,-332.5,525.0
-3.54,468.97,886.94,227.5,35.0,717.5
-3.42,468.97,887.31,385.0,175.0,455.0
-3.29,468.85,887.43,770.0,-140.0,472.5
-3.05,468.72,887.31,735.0,-227.5,455.0
-2.68,468.72,886.94,367.5,-122.5,402.5
-2.44,468.72,886.57,-157.5,87.5,315.0
-2.2,468.6,886.45,-87.5,-140.0,192.5
-1.95,468.48,886.45,87.5,-315.0,157.5
-1.71,468.72,886.21,105.0,-175.0,-35.0
-1.59,468.72,885.96,87.5,-490.0,-332.5
-1.71,468.72,885.6,0.0,-910.0,-437.5
-1.95,468.48,885.48,-630.0,-472.5,-315.0
-2.07,468.48,885.6,-1015.0,17.5,-210.0
-2.32,468.24,885.96,-507.5,-437.5,-192.5
-2.56,467.99,886.45,525.0,-1015.0,17.5
-2.56,467.87,886.94,577.5,-297.5,210.0
-2.44,467.99,887.18,-17.5,700.0,157.5
-2.56,468.11,887.31,140.0,385.0,-157.5
-2.68,468.24,887.31,490.0,-420.0,-280.0
-2.68,468.11,887.43,507.5,-367.5,-455.0
-2.81,467.99,887.67,332.5,245.0,-297.5
-2.93,467.87,887.67,122.5,717.5,-52.5
-2.93,467.5,887.67,35.0,542.5,70.0
-2.93,467.26,887.79,385.0,17.5,315.0
-2.81,467.02,887.67,682.5,105.0,507.5
-2.44,467.26,887.31,385.0,175.0,140.0
-2.2,467.5,886.94,17.5,-315.0,-262.5
-1.95,467.5,886.7,17.5,-507.5,-490.0
-1.95,467.5,886.7,17.5,-245.0,-472.5
-2.07,467.5,886.45,-332.5,-262.5,-420.0
-2.32,467.38,886.7,-472.5,-437.5,-420.0
-2.68,467.14,887.18,0.0,-472.5,-262.5
-2.81,467.02,887.55,280.0,-332.5,0.0
-3.05,466.89,887.79,297.5,-297.5,-122.5
-3.29,466.77,887.92,577.5,-420.0,0.0
-3.42,466.77,887.79,437.5,-332.5,140.0
-3.42,466.77,887.79,192.5,122.5,-35.0
-3.54,466.77,887.67,35.0,210.0,17.5
-3.66,466.77,887.67,-52.5,192.5,175.0
-3.9,466.77,887.67,105.0,105.0,157.5
-3.9,466.77,887.67,717.5,-437.5,210.0
-4.03,466.89,887.31,577.5,-630.0,-105.0
-4.03,467.02,887.06,-297.5,-192.5,-122.5
-4.03,466.77,887.31,-577.5,122.5,35.0
-4.15,466.53,887.79,-122.5,-192.5,105.0
-4.15,466.53,888.16,490.0,-682.5,280.0
-4.03,466.53,888.53,542.5,-490.0,245.0
-3.78,466.77,888.77,700.0,-175.0,87.5
-3.54,466.89,888.89,875.0,-420.0,-122.5
-3.29,466.89,888.89,910.0,-472.5,-332.5
-2.93,467.02,888.77,542.5,-17.5,-507.5
-3.05,466.89,888.65,315.0,140.0,-735.0
-3.42,466.53,888.16,735.0,-472.5,-507.5
-3.78,466.53,887.67,367.5,-857.5,-437.5
-4.15,466.41,887.55,-122.5,-717.5,-455.0
-4.51,466.16,887.92,-52.5,-245.0,0.0
-4.88,465.92,888.16,647.5,122.5,332.5
-4.88,466.16,887.79,595.0,-157.5,210.0
-5.12,466.41,887.55,70.0,-595.0,-210.0
-5.25,466.41,887.67,122.5,-332.5,17.5
-5.49,466.28,887.79,402.5,70.0,472.5
-5.37,466.53,887.67,455.0,-227.5,402.5
-5.0,466.77,887.55,192.5,-717.5,35.0
-4.64,467.02,887.79,297.5,-525.0,-157.5
-4.51,467.02,888.04,630.0,-192.5,-52.5
-4.51,467.02,887.92,805.0,-472.5,-122.5
-4.39,467.14,887.67,805.0,-980.0,-192.5
-4.51,467.14,887.43,437.5,-787.5,-227.5
-4.51,467.02,887.06,-52.5,-175.0,-52.5
-4.76,467.02,886.82,-105.0,-490.0,17.5
-4.76,466.89,886.57,-87.5,-962.5,-70.0
-4.76,466.89,886.7,-420.0,-700.0,-87.5
-4.64,466.89,887.06,-245.0,-682.5,-52.5
-4.39,467.02,887.67,122.5,-1190.0,-157.5
-4.15,467.14,888.4,542.5,-1067.5,-297.5
-3.78,467.26,889.01,682.5,-542.5,-192.5
-3.54,467.5,889.38,665.0,-402.5,-245.0
-3.54,467.5,889.62,1085.0,-805.0,-455.0
-3.54,467.38,889.5,1662.5,-1137.5,-332.5
-3.66,467.26,889.14,1400.0,-787.5,-192.5
-3.78,467.26,888.77,875.0,-420.0,-192.5
-4.03,467.26,888.28,875.0,-822.5,-245.0
-4.15,467.26,887.67,647.5,-1347.5,-350.0
-4.51,467.14,887.43,490.0,-1015.0,-280.0
-4.88,466.89,887.43,262.5,-455.0,140.0
-5.0,466.77,887.43,297.5,-437.5,297.5
-5.0,466.89,887.67,647.5,-910.0,210.0
-4.88,467.02,887.92,857.5,-700.0,315.0
-4.64,467.26,887.92,822.5,-52.5,385.0
-4.39,467.75,887.67,560.0,192.5,70.0
-4.15,467.99,887.43,1015.0,-332.5,-157.5
-4.15,468.24,886.94,1085.0,-560.0,-332.5
-4.15,468.36,886.09,385.0,-542.5,-385.0
-4.15,468.36,885.6,-472.5,-700.0,-210.0
-4.15,468.24,885.84,-507.5,-875.0,-105.0
-4.03,468.24,886.57,-227.5,-875.0,-17.5
-3.78,468.36,887.55,525.0,-857.5,-17.5
-3.54,468.48,888.16,1592.5,-927.5,52.5
-3.17,468.72,888.4,1767.5,-875.0,-17.5
-2.93,469.09,888.16,1260.0,-385.0,-280.0
-2.81,469.21,887.79,840.0,-157.5,-437.5
-2.93,469.09,887.31,997.5,-630.0,-420.0
-3.17,468.72,886.82,980.0,-892.5,-175.0
-3.42,468.36,886.33,560.0,-577.5,105.0
-3.66,467.99,885.96,192.5,-262.5,402.5
-3.66,467.75,885.6,-70.0,-542.5,577.5
-3.54,467.75,885.6,140.0,-822.5,490.0
-3.17,467.99,885.84,595.0,-682.5,210.0
-2.68,468.24,885.96,525.0,-280.0,17.5
-2.44,468.72,885.96,192.5,35.0,-332.5
-2.32,469.09,886.21,-192.5,0.0,-525.0
-2.2,469.33,886.7,122.5,-35.0,-525.0
-2.32,469.46,887.18,735.0,52.5,-402.5
-2.44,469.58,887.31,1155.0,-122.5,-245.0
-2.68,469.82,887.18,962.5,-350.0,-297.5
-2.81,469.94,886.94,857.5,-402.5,-350.0
-2.93,469.94,886.94,875.0,-262.5,-297.5
-2.93,469.94,886.7,1067.5,-157.5,-140.0
-2.93,469.82,886.21,822.5,-332.5,-35.0
-2.93,469.94,885.84,682.5,-420.0,-192.5
-3.05,469.94,885.48,52.5,-210.0,-262.5
-3.17,469.94,885.48,-35.0,-280.0,-210.0
-3.42,469.82,885.48,350.0,-472.5,52.5
-3.42,469.82,885.35,315.0,-490.0,140.0
-3.42,469.82,885.48,157.5,-402.5,245.0
-3.42,469.82,885.35,332.5,-332.5,472.5
-3.42,470.07,884.99,-140.0,-402.5,420.0
-3.17,470.31,884.87,-455.0,-472.5,210.0
-3.05,470.43,885.11,-280.0,-525.0,35.0
-2.93,470.43,885.48,140.0,-595.0,105.0
-2.68,470.31,885.96,332.5,-525.0,35.0
-2.44,470.31,886.45,542.5,-472.5,-140.0
-2.32,470.31,886.82,840.0,-542.5,-192.5
-2.2,470.19,887.06,1155.0,-595.0,-192.5
-2.2,470.19,887.18,892.5,-245.0,-157.5
-2.32,470.19,886.94,1260.0,-297.5,-52.5
-2.44,470.19,886.21,1277.5,-612.5,0.0
-2.56,470.43,885.23,17.5,-210.0,-245.0
-2.68,470.55,884.62,-367.5,-35.0,-280.0
-2.81,470.68,884.13,-735.0,-857.5,-210.0
-2.93,470.55,884.26,-595.0,-1085.0,-122.5
-2.93,470.55,884.74,-227.5,-507.5,437.5
-2.68,470.92,884.99,-140.0,-472.5,402.5
-2.44,471.41,885.35,420.0,-1172.5,-52.5
-2.32,471.53,885.72,682.5,-1120.0,-227.5
-2.32,471.65,885.96,840.0,-455.0,-157.5
-2.2,471.41,885.84,472.5,-402.5,-227.5
-2.2,471.04,885.84,175.0,-490.0,-315.0
-2.2,470.55,885.96,262.5,52.5,105.0
-2.32,470.31,885.84,-70.0,385.0,315.0
-2.32,470.31,885.35,-420.0,122.5,297.5
-2.2,470.43,885.11,-507.5,-297.5,210.0
-1.95,470.43,884.99,122.5,-542.5,-52.5
-1.71,470.43,884.74,350.0,-717.5,-262.5
-1.46,470.68,884.26,-210.0,-560.0,-490.0
-1.46,470.92,884.01,-1085.0,-332.5,-665.0
-1.71,470.92,884.01,-1400.0,-385.0,-682.5
-1.95,470.8,884.5,-805.0,-682.5,-472.5
-2.2,470.68,885.23,-227.5,-682.5,-35.0
-2.56,470.92,885.72,0.0,-542.5,105.0
-2.68,471.04,886.33,70.0,-507.5,70.0
-2.68,470.92,886.94,385.0,-297.5,140.0
-2.81,470.8,887.18,700.0,-157.5,350.0
-2.81,470.55,886.94,980.0,-542.5,507.5
-2.68,470.43,886.21,542.5,-262.5,262.5
-2.81,470.31,885.35,-367.5,-140.0,297.5
-2.93,470.31,884.62,-1172.5,-420.0,105.0
-2.93,470.19,884.87,-1452.5,-682.5,-17.5
-2.93,469.94,885.96,-1592.5,1802.5,525.0
-2.81,469.7,887.31,-2765.0,5022.5,1172.5
-2.68,469.46,888.04,-227.5,1540.0,630.0
-2.56,469.33,888.4,2292.5,-2240.0,280.0
-2.2,469.46,888.53,2082.5,-1540.0,280.0
-1.71,469.7,888.28,735.0,665.0,227.5
-1.46,469.94,887.67,420.0,157.5,-17.5
-1.22,470.07,886.94,420.0,-1225.0,-472.5
-1.22,470.07,886.33,-262.5,-1102.5,-682.5
-1.22,469.82,886.21,-367.5,-525.0,-735.0
-1.59,469.46,886.21,210.0,-1102.5,-665.0
-2.07,468.97,886.21,-157.5,-1382.5,-402.5
-2.56,468.48,886.45,-385.0,-682.5,105.0
-2.93,468.24,886.82,-52.5,0.0,525.0
-3.05,467.99,886.82,525.0,-437.5,577.5
-3.05,468.11,886.45,525.0,-927.5,210.0
-2.81,468.24,886.33,-507.5,-840.0,-17.5
-2.56,468.36,886.57,-980.0,-472.5,-175.0
-2.2,468.48,887.06,-612.5,-507.5,-140.0
-1.95,468.48,887.67,-70.0,-630.0,-140.0
-1.71,468.6,888.28,542.5,-682.5,-210.0
-1.71,468.72,888.77,980.0,-612.5,-227.5
-1.59,468.72,888.89,945.0,-560.0,-315.0
-1.46,468.6,889.14,822.5,-525.0,-420.0
-1.46,468.36,889.14,910.0,-367.5,-315.0
-1.46,468.11,888.77,945.0,-315.0,-262.5
-1.59,467.99,888.16,577.5,-630.0,-455.0
-1.71,467.87,887.92,402.5,-927.5,-490.0
-1.95,467.63,887.79,665.0,-962.5,-210.0
-1.83,467.75,887.55,945.0,-752.5,-87.5
-1.71,467.87,886.94,490.0,-472.5,-332.5
-1.83,467.99,886.33,-175.0,-332.5,-542.5
-2.07,467.99,885.84,-385.0,-612.5,-455.0
-2.2,467.87,885.6,-595.0,-682.5,-385.0
-2.44,467.75,885.84,-367.5,-630.0,-280.0
-2.56,467.75,886.21,-140.0,-490.0,17.5
-2.56,467.75,886.57,-140.0,-192.5,17.5
-2.44,467.87,886.94,-105.0,87.5,-35.0
-2.32,467.99,887.18,-35.0,262.5,-35.0
-2.32,468.11,887.31,87.5,402.5,-122.5
-2.32,467.99,887.43,350.0,0.0,-192.5
-2.32,467.99,887.18,542.5,-595.0,-262.5
-2.32,467.87,886.7,297.5,-700.0,-227.5
-2.44,467.75,886.33,-507.5,-227.5,-140.0
-2.44,467.63,886.21,-1015.0,157.5,0.0
-2.44,467.38,886.45,-437.5,-297.5,-52.5
-2.44,467.14,886.45,332.5,-1050.0,17.5
-2.44,467.14,886.57,-157.5,-630.0,52.5
-2.44,467.26,886.7,-490.0,35.0,157.5
-2.44,467.26,886.82,-402.5,-280.0,122.5
-2.44,467.38,886.82,-192.5,-1032.5,-157.5
-2.56,467.38,886.94,-35.0,-962.5,-157.5
-2.44,467.38,887.06,-245.0,-350.0,0.0
-2.56,467.38,887.18,-367.5,-280.0,-87.5
-2.56,467.26,887.43,-280.0,-735.0,-122.5
-2.68,467.02,887.67,-52.5,-630.0,0.0
-2.68,466.77,887.92,70.0,-315.0,280.0
-2.68,466.65,888.04,192.5,-402.5,332.5
-2.44,466.65,887.92,332.5,-875.0,70.0
-2.2,466.53,887.92,210.0,-997.5,-17.5
-1.95,466.41,887.92,0.0,-700.0,35.0
-1.71,466.16,887.92,52.5,-367.5,-122.5
-1.71,466.04,887.67,560.0,-752.5,-122.5
-1.83,466.04,886.82,70.0,-1050.0,-280.0
-2.07,466.04,886.09,-997.5,-1207.5,-315.0
-2.32,465.8,886.21,-1610.0,-752.5,0.0
-2.44,465.43,886.82,-1225.0,-297.5,350.0
-2.44,465.43,887.43,-1015.0,-332.5,560.0
-2.2,465.55,888.4,-647.5,-437.5,280.0
-2.07,465.67,889.38,175.0,-507.5,175.0
-1.71,465.67,890.36,1085.0,-542.5,227.5
-1.46,465.67,890.6,1242.5,-437.5,227.5
-0.98,465.67,890.72,840.0,-192.5,70.0
-0.73,465.55,890.48,770.0,0.0,-35.0
-0.61,465.43,890.11,700.0,-245.0,-122.5
-0.61,465.31,889.38,367.5,-437.5,-192.5
-0.73,465.19,888.77,-35.0,-577.5,-140.0
-0.85,465.06,888.53,-437.5,-682.5,-192.5
-0.73,464.82,888.77,-17.5,-420.0,-122.5
-0.73,464.45,888.77,315.0,-350.0,17.5
-0.73,464.33,888.4,157.5,-770.0,-140.0
-0.73,464.58,888.16,-140.0,-1032.5,-420.0
-0.73,464.58,888.4,-700.0,-542.5,-332.5
-0.85,464.58,888.89,-402.5,70.0,-70.0
-0.85,464.58,889.38,227.5,-175.0,35.0
-0.73,464.58,889.62,630.0,-700.0,-262.5
-0.61,464.58,889.75,647.5,-770.0,-385.0
-0.73,464.45,890.11,490.0,-17.5,-35.0
-0.73,464.33,889.99,472.5,455.0,262.5
-0.61,464.21,889.62,402.5,-87.5,70.0
-0.49,464.21,889.26,630.0,-787.5,-175.0
-0.37,464.21,889.01,280.0,-735.0,-315.0
-0.37,464.09,888.89,87.5,-437.5,-280.0
-0.37,464.09,888.89,385.0,-577.5,-140.0
-0.24,464.09,889.01,245.0,-560.0,-297.5
-0.24,464.09,889.14,297.5,-525.0,-332.5
-0.37,463.97,889.26,472.5,-472.5,-192.5
-0.37,463.84,889.38,665.0,-262.5,-52.5
-0.37,463.84,889.26,402.5,-297.5,-210.0
-0.49,463.84,889.14,542.5,-647.5,-192.5
-0.61,463.84,888.89,665.0,-805.0,-17.5
-0.61,463.84,888.77,385.0,-385.0,105.0
-0.49,464.09,888.65,52.5,-140.0,87.5
-0.37,464.21,888.53,192.5,-595.0,-227.5
-0.24,464.09,888.53,437.5,-980.0,-262.5
-0.24,464.09,888.65,402.5,-402.5,-192.5
-0.24,464.09,888.65,245.0,87.5,-122.5
-0.24,464.21,888.53,227.5,-227.5,-210.0
-0.37,464.21,888.53,245.0,-560.0,-437.5
-0.61,464.09,888.53,595.0,-595.0,-210.0
-0.85,463.97,888.4,490.0,-315.0,35.0
-1.1,463.84,888.4,507.5,-490.0,122.5
-1.1,463.84,888.4,490.0,-735.0,140.0
-0.98,463.84,888.53,262.5,-455.0,105.0
-0.98,463.72,888.89,245.0,-122.5,280.0
-0.73,463.72,889.01,472.5,-17.5,350.0
-0.49,463.84,889.01,752.5,-227.5,175.0
-0.12,463.97,888.77,980.0,-175.0,-87.5
0.0,464.33,888.04,647.5,-227.5,-367.5
-0.12,464.58,887.31,-105.0,-910.0,-350.0
-0.12,464.58,887.18,-297.5,-1120.0,-332.5
0.0,464.45,887.43,-507.5,-612.5,-210.0
0.12,464.33,888.16,-385.0,-402.5,-140.0
0.12,464.33,888.89,595.0,-542.5,-52.5
0.12,464.33,889.5,1190.0,-542.5,0.0
0.12,464.45,889.75,1330.0,-192.5,-122.5
0.0,464.58,889.38,1242.5,-157.5,-192.5
-0.12,464.45,889.01,980.0,-245.0,-280.0
-0.24,464.45,888.53,770.0,-245.0,-227.5
-0.61,464.45,888.04,280.0,-192.5,-192.5
-0.85,464.33,887.67,-350.0,-157.5,-35.0
-1.1,464.09,887.67,-472.5,-140.0,262.5
-1.1,463.84,888.04,0.0,-297.5,647.5
-0.73,463.97,888.53,647.5,-262.5,682.5
-0.37,464.33,888.65,700.0,-87.5,507.5
0.12,464.82,888.65,437.5,17.5,262.5
0.49,465.31,888.53,17.5,122.5,-140.0
0.73,465.55,888.53,227.5,-35.0,-332.5
0.85,465.67,888.53,437.5,-437.5,-385.0
0.98,465.67,888.65,577.5,-560.0,-402.5
0.98,465.55,888.89,700.0,-385.0,-472.5
0.85,465.55,889.01,962.5,-315.0,-350.0
0.49,465.55,888.77,700.0,-297.5,-332.5
0.0,465.55,888.4,455.0,-437.5,-402.5
-0.49,465.43,888.4,315.0,-332.5,-262.5
-0.98,465.19,888.53,437.5,-70.0,35.0
-1.34,464.94,888.65,350.0,140.0,350.0
-1.59,464.82,888.53,227.5,140.0,525.0
-1.83,464.7,888.65,245.0,87.5,630.0
-1.83,464.7,888.77,595.0,-52.5,682.5
-1.71,464.7,888.89,927.5,-140.0,735.0
-1.46,465.06,888.53,595.0,17.5,647.5
-1.22,465.31,888.28,262.5,35.0,420.0
-0.98,465.67,888.04,52.5,-175.0,227.5
-0.85,465.8,888.04,0.0,-350.0,52.5
-0.73,465.8,888.4,315.0,-420.0,105.0
-0.73,465.8,888.89,490.0,-297.5,157.5
-0.49,465.8,889.38,700.0,-157.5,210.0
-0.49,465.8,889.75,1102.5,-140.0,297.5
-0.37,465.92,889.75,1120.0,-175.0,192.5
-0.49,466.04,889.62,1312.5,-227.5,52.5
-0.61,466.16,889.14,1190.0,-315.0,122.5
-0.85,466.28,888.4,682.5,-280.0,192.5
-1.1,466.16,887.67,420.0,-665.0,262.5
-1.22,465.92,887.18,192.5,-1085.0,245.0
-1.34,465.67,887.18,280.0,-1050.0,472.5
-1.22,465.55,887.18,280.0,-717.5,612.5
-0.98,465.55,887.06,-70.0,-682.5,262.5
-0.98,465.55,887.18,-157.5,-787.5,105.0
-0.98,465.55,887.18,-35.0,-420.0,385.0
-0.98,465.55,887.43,17.5,-17.5,402.5
-0.85,465.67,887.43,157.5,-297.5,52.5
-0.85,465.8,887.55,402.5,-577.5,17.5
-0.73,466.16,887.67,-280.0,-525.0,35.0
-0.61,466.28,887.92,-332.5,-402.5,122.5
-0.37,466.53,888.65,385.0,-402.5,157.5
-0.12,466.77,889.14,927.5,-367.5,70.0
0.0,467.14,889.38,1400.0,-367.5,52.5
0.12,467.26,889.14,1400.0,-280.0,-17.5
0.24,467.02,888.65,1137.5,-332.5,-52.5
0.24,466.77,888.04,822.5,-525.0,-140.0
0.12,466.28,887.43,735.0,-910.0,-140.0
0.24,465.92,886.7,385.0,-1050.0,-35.0
0.37,465.8,886.21,-385.0,-577.5,17.5
0.49,465.67,886.09,-997.5,-87.5,17.5
0.73,465.67,886.45,-1050.0,-17.5,-87.5
0.85,465.92,887.18,-262.5,-35.0,-157.5
0.85,466.04,887.67,560.0,-105.0,-350.0
0.85,466.41,887.79,630.0,-472.5,-420.0
0.73,466.65,887.92,297.5,-402.5,-332.5
0.49,466.65,888.04,280.0,-192.5,-105.0
0.49,466.77,887.92,367.5,-297.5,17.5
0.61,467.02,887.92,315.0,-542.5,-157.5
0.73,467.14,887.79,385.0,-647.5,-332.5
0.85,467.5,887.92,665.0,-560.0,-385.0
0.73,467.63,887.92,490.0,-280.0,-437.5
0.73,467.5,887.79,350.0,-105.0,-367.5
0.73,467.5,887.67,315.0,-52.5,-385.0
0.49,467.26,887.31,385.0,-385.0,-350.0
0.24,467.14,886.94,262.5,-857.5,-367.5
0.0,467.02,886.57,210.0,-1032.5,-315.0
0.0,466.77,886.57,-157.5,-787.5,-105.0
-0.12,466.65,886.7,-420.0,-52.5,140.0
0.0,466.65,887.18,-367.5,280.0,140.0
0.0,466.77,887.31,192.5,-140.0,52.5
0.0,466.89,887.31,245.0,-472.5,-70.0
0.0,467.02,887.18,-70.0,-227.5,-52.5
-0.24,467.14,886.94,-87.5,-210.0,52.5
-0.37,467.26,886.7,0.0,-700.0,70.0
-0.37,467.26,886.57,-52.5,-997.5,-157.5
-0.24,467.26,886.7,-52.5,-997.5,-157.5
-0.12,467.02,887.06,157.5,-717.5,0.0
0.0,467.02,887.55,227.5,-262.5,52.5
0.12,467.02,887.79,-192.5,297.5,0.0
0.12,467.02,888.04,-87.5,87.5,-52.5
0.12,466.77,888.16,507.5,-385.0,35.0
0.24,466.77,888.28,647.5,-385.0,140.0
0.24,466.89,888.04,227.5,-262.5,-122.5
0.24,466.77,887.92,157.5,-752.5,-227.5
0.37,466.53,888.04,910.0,-1155.0,-175.0
0.37,466.41,887.67,945.0,-577.5,-17.5
0.37,466.53,887.06,-105.0,35.0,70.0
0.37,466.53,886.57,-857.5,-105.0,-280.0
0.24,466.53,886.57,-857.5,-682.5,-280.0
0.24,466.41,886.94,-560.0,-787.5,-35.0
0.24,466.41,887.43,-542.5,-87.5,122.5
0.12,466.41,887.92,-175.0,-210.0,157.5
0.12,466.41,888.53,840.0,-927.5,157.5
0.37,466.53,888.77,1067.5,-752.5,105.0
0.49,466.53,888.65,367.5,157.5,-70.0
0.49,466.41,888.4,17.5,122.5,-245.0
0.49,466.04,888.28,507.5,-717.5,-280.0
0.49,465.8,887.92,525.0,-612.5,-17.5
0.37,465.8,887.43,-175.0,-122.5,-35.0
0.37,465.8,887.18,-752.5,-385.0,-175.0
0.37,465.67,887.31,-245.0,-787.5,-122.5
0.49,465.67,887.55,105.0,-402.5,-122.5
0.61,465.8,887.67,105.0,-262.5,-297.5
0.49,465.8,887.43,-122.5,-612.5,-402.5
0.49,465.8,887.43,-402.5,-507.5,-315.0
0.24,465.8,887.79,-595.0,-87.5,-87.5
0.24,465.8,888.28,-402.5,87.5,122.5
0.24,465.92,888.65,17.5,-157.5,140.0
0.24,466.04,889.01,227.5,-245.0,70.0
0.24,466.04,889.26,577.5,-262.5,70.0
0.24,466.04,889.26,892.5,-472.5,35.0
0.37,466.04,889.01,595.0,-507.5,-52.5
0.49,466.04,888.77,70.0,-87.5,-175.0
0.49,465.8,888.65,87.5,-175.0,-140.0
0.37,465.31,888.53,315.0,-647.5,-17.5
0.24,465.06,888.4,122.5,-577.5,35.0
0.24,465.06,888.4,-140.0,-87.5,157.5
0.12,465.06,888.16,17.5,-332.5,105.0
0.12,464.94,888.04,122.5,-1102.5,-105.0
0.37,464.94,888.16,157.5,-962.5,-87.5
0.49,464.82,888.16,105.0,-560.0,-157.5
0.61,464.94,888.16,52.5,-665.0,-227.5
0.49,464.94,888.16,17.5,-805.0,-210.0
0.49,464.94,888.16,-210.0,-472.5,-35.0
0.37,464.82,888.4,-367.5,-350.0,70.0
0.37,464.82,888.65,35.0,-542.5,105.0
0.37,464.82,888.89,455.0,-717.5,70.0
0.49,464.94,889.01,157.5,-402.5,0.0
0.61,465.06,889.01,-105.0,0.0,-35.0
0.73,465.06,889.01,-17.5,-70.0,35.0
0.98,465.06,888.89,70.0,-262.5,-105.0
1.22,465.06,888.89,17.5,-472.5,-315.0
1.46,465.19,888.77,-210.0,-350.0,-472.5
1.59,465.06,888.89,-280.0,-175.0,-577.5
1.59,464.82,889.01,-17.5,-402.5,-490.0
1.46,464.58,889.01,122.5,-805.0,-297.5
1.46,464.45,889.14,0.0,-612.5,-472.5
1.46,464.33,889.26,52.5,-70.0,-420.0
1.22,464.21,889.14,385.0,122.5,-262.5
0.98,464.21,888.4,-262.5,-350.0,-367.5
0.98,464.33,888.16,-945.0,-997.5,-472.5
0.85,464.33,888.4,-1015.0,-752.5,-560.0
0.85,464.21,889.38,-787.5,-17.5,-350.0
0.61,464.09,890.36,332.5,-140.0,-35.0
0.61,463.97,890.6,1207.5,-962.5,-70.0
0.61,464.09,890.6,997.5,-1015.0,-297.5
0.73,463.84,890.72,437.5,-262.5,-297.5
0.61,463.6,890.72,525.0,280.0,-122.5
0.61,463.36,890.36,262.5,280.0,52.5
0.49,463.36,889.99,-472.5,367.5,-35.0
0.49,463.11,889.87,-507.5,70.0,-105.0
0.37,462.99,890.11,245.0,-717.5,-70.0
0.37,462.87,890.36,875.0,-1155.0,-105.0
0.61,462.87,890.36,367.5,-402.5,-175.0
0.61,462.99,890.36,332.5,437.5,-105.0
0.61,463.11,889.87,140.0,-105.0,-157.5
0.61,463.36,889.5,-122.5,-752.5,-665.0
0.49,463.36,889.62,-367.5,-525.0,-612.5
0.24,463.36,889.99,-332.5,105.0,-157.5
0.12,463.23,890.36,70.0,-157.5,-157.5
0.0,463.11,890.84,612.5,-770.0,-245.0
0.0,463.11,891.09,910.0,-630.0,-175.0
-0.12,463.11,890.97,1067.5,-297.5,-70.0
-0.24,463.23,890.6,752.5,-507.5,-192.5
-0.24,463.23,890.36,437.5,-490.0,-297.5
-0.24,463.11,890.23,105.0,-140.0,-175.0
-0.49,462.75,889.99,-35.0,-192.5,-140.0
-0.49,462.62,889.87,245.0,-787.5,-70.0
-0.49,462.38,889.99,52.5,-700.0,-17.5
-0.61,462.38,890.23,0.0,0.0,245.0
-0.49,462.5,890.23,-175.0,140.0,297.5
-0.49,462.62,890.11,157.5,-525.0,-17.5
-0.49,462.62,890.11,472.5,-1032.5,-122.5
-0.24,462.62,890.36,332.5,-682.5,-175.0
-0.24,462.62,890.48,105.0,-140.0,-87.5
-0.37,462.5,890.36,192.5,-315.0,0.0
-0.37,462.62,890.36,52.5,-332.5,122.5
-0.37,462.5,890.48,70.0,-297.5,87.5
-0.37,462.5,890.48,367.5,-507.5,52.5
-0.24,462.62,890.36,297.5,-612.5,-17.5
-0.12,462.62,890.48,-105.0,-332.5,-245.0
0.0,462.5,890.6,245.0,-367.5,-192.5
-0.12,462.5,890.6,542.5,-525.0,-52.5
-0.12,462.5,890.36,595.0,-630.0,-70.0
-0.24,462.5,890.11,122.5,-752.5,-192.5
-0.37,462.5,890.11,-367.5,-350.0,-140.0
-0.37,462.26,890.36,-262.5,0.0,35.0
-0.37,462.14,890.6,245.0,-402.5,87.5
-0.37,461.89,890.84,455.0,-665.0,140.0
-0.24,461.89,891.09,577.5,-280.0,140.0
-0.12,461.89,890.97,437.5,35.0,140.0
0.0,462.01,890.6,385.0,-402.5,-17.5
0.12,462.14,889.99,455.0,-1032.5,-210.0
0.24,462.14,889.62,0.0,-927.5,-280.0
0.37,462.14,889.26,52.5,-315.0,-262.5
0.37,462.38,889.01,-630.0,-70.0,-385.0
0.24,462.38,888.89,-945.0,-647.5,-507.5
0.12,462.26,889.5,-577.5,-980.0,-385.0
0.0,462.01,890.36,-157.5,-455.0,-52.5
-0.24,461.89,891.09,472.5,-87.5,227.5
-0.12,462.01,891.7,822.5,-315.0,227.5
0.12,462.14,891.94,945.0,-402.5,-17.5
0.24,462.14,892.06,910.0,-35.0,-122.5
0.49,462.01,891.82,875.0,262.5,-140.0
0.73,461.89,891.45,962.5,-192.5,-280.0
0.73,461.77,890.72,787.5,-787.5,-455.0
0.85,461.77,890.23,122.5,-630.0,-665.0
0.73,461.77,889.99,-122.5,-315.0,-490.0
0.61,461.65,889.99,-367.5,-175.0,-385.0
0.49,461.65,890.11,-140.0,-297.5,-420.0
0.24,461.65,890.6,350.0,-402.5,-385.0
0.12,461.53,891.09,770.0,-262.5,-210.0
0.0,461.65,891.09,910.0,-52.5,17.5
-0.24,461.89,890.84,297.5,-122.5,-175.0
-0.24,462.14,890.6,105.0,-350.0,-315.0
-0.24,462.14,890.6,525.0,-525.0,-70.0
-0.24,462.14,890.6,455.0,-157.5,-87.5
-0.24,462.14,890.6,297.5,-105.0,-175.0
-0.12,462.01,890.6,437.5,-262.5,-297.5
-0.24,462.01,890.48,525.0,-210.0,-210.0
-0.24,461.89,890.23,402.5,-70.0,-140.0
-0.37,462.01,889.87,35.0,-472.5,-262.5
-0.49,461.89,889.99,192.5,-770.0,-350.0
-0.73,461.65,890.36,245.0,-437.5,-70.0
-0.73,461.65,890.48,192.5,35.0,70.0
-0.85,461.65,890.6,332.5,-385.0,70.0
-0.73,461.77,890.72,612.5,-927.5,-17.5
-0.61,461.77,890.84,542.5,-420.0,35.0
-0.49,461.89,890.97,157.5,175.0,-17.5
-0.49,461.89,890.84,227.5,-70.0,-175.0
-0.61,461.89,890.97,542.5,-630.0,-175.0
-0.73,461.89,890.97,735.0,-577.5,17.5
-0.73,461.89,890.84,507.5,-245.0,157.5
-0.73,461.89,890.6,402.5,-192.5,52.5
-0.73,461.89,890.23,437.5,-612.5,-17.5
-0.73,462.14,889.99,210.0,-805.0,0.0
-0.73,462.38,889.87,-140.0,-367.5,-87.5
-0.73,462.38,889.99,-70.0,-350.0,-175.0
-0.85,462.26,890.23,437.5,-770.0,-140.0
-0.98,462.14,890.6,455.0,-437.5,157.5
-1.22,462.14,890.84,402.5,140.0,472.5
-1.34,462.26,890.6,612.5,-87.5,455.0
-1.46,462.5,890.23,420.0,-577.5,332.5
-1.46,462.75,890.11,175.0,-420.0,227.5
-1.46,462.75,890.11,87.5,-192.5,332.5
-1.46,462.62,890.36,385.0,-280.0,525.0
-1.22,462.75,890.48,525.0,-525.0,350.0
-0.98,462.87,890.6,560.0,-612.5,245.0
-0.73,462.75,890.72,490.0,-315.0,315.0
-0.37,462.75,890.84,805.0,-157.5,455.0
-0.12,462.87,890.84,525.0,-70.0,192.5
0.24,462.99,890.72,875.0,-332.5,-122.5
0.24,463.23,890.36,945.0,-507.5,-385.0
0.12,463.36,889.75,87.5,-647.5,-350.0
0.0,463.36,889.5,-402.5,-805.0,-280.0
0.0,463.36,889.99,-385.0,-682.5,-192.5
-0.12,463.23,890.97,105.0,-455.0,105.0
-0.24,463.11,891.82,1155.0,-157.5,350.0
-0.24,463.23,892.31,1627.5,-350.0,420.0
-0.12,463.36,892.55,1732.5,-560.0,192.5
0.0,463.36,892.43,2100.0,-542.5,140.0
0.0,463.36,891.94,1942.5,-420.0,245.0
0.12,463.48,890.97,1085.0,-210.0,157.5
0.12,463.6,890.11,227.5,-332.5,-105.0
0.12,463.6,889.75,52.5,-700.0,-245.0
0.0,463.36,889.87,437.5,-752.5,-157.5
0.0,463.23,889.99,665.0,-665.0,192.5
0.0,463.11,890.11,1067.5,-420.0,315.0
0.12,463.36,889.87,1050.0,-280.0,192.5
0.12,463.6,889.38,682.5,-525.0,105.0
0.24,463.97,889.01,297.5,-612.5,-105.0
0.24,464.21,888.89,227.5,-542.5,-157.5
0.24,464.45,889.01,507.5,-577.5,-105.0
0.24,464.58,889.14,437.5,-665.0,-262.5
0.0,464.7,889.38,507.5,-455.0,-140.0
-0.24,464.7,889.62,717.5,-70.0,157.5
-0.49,464.94,889.38,910.0,-105.0,245.0
-0.61,465.06,889.14,857.5,-507.5,262.5
-0.61,465.06,889.01,1015.0,-665.0,350.0
-0.49,465.06,888.89,1137.5,-542.5,315.0
-0.24,465.06,888.65,770.0,-455.0,192.5
-0.24,465.19,888.4,227.5,-332.5,52.5
-0.24,464.82,888.53,542.5,-297.5,332.5
-0.12,464.7,888.4,665.0,-52.5,682.5
0.0,464.82,888.16,402.5,35.0,595.0
0.24,464.94,887.67,210.0,-385.0,315.0
0.61,465.06,887.43,455.0,-770.0,140.0
0.98,465.19,887.43,297.5,-805.0,0.0
1.22,465.43,887.43,-52.5,-420.0,-157.5
1.34,465.55,887.67,105.0,-490.0,-350.0
1.34,465.55,888.04,577.5,-682.5,-140.0
1.34,465.8,888.16,612.5,-455.0,-35.0
1.34,465.8,888.4,577.5,-122.5,-87.5
1.46,466.04,888.4,595.0,-297.5,-175.0
1.34,466.16,888.28,717.5,-577.5,-227.5
1.46,466.16,888.16,875.0,-437.5,-210.0
1.34,466.04,887.92,822.5,-402.5,-227.5
1.46,466.04,887.55,700.0,-420.0,-175.0
1.46,466.04,887.18,122.5,-140.0,-245.0
1.46,465.92,886.82,122.5,-297.5,-210.0
1.34,465.67,886.33,140.0,-612.5,-70.0
1.22,465.67,885.96,-385.0,-35.0,140.0
1.22,465.67,885.72,-332.5,245.0,35.0
1.1,465.8,885.48,-385.0,-332.5,-87.5
1.22,466.04,885.48,-350.0,-700.0,-402.5
1.22,466.16,885.48,-752.5,-595.0,-507.5
1.1,466.28,885.96,-997.5,-350.0,-262.5
0.98,466.41,886.7,-367.5,-297.5,17.5
0.98,466.53,887.67,525.0,-437.5,175.0
1.1,466.77,888.04,1067.5,-175.0,245.0
1.34,467.02,887.92,997.5,-52.5,-17.5
1.46,467.26,887.67,595.0,-297.5,-437.5
1.46,467.02,887.55,945.0,-595.0,-682.5
1.22,466.65,887.18,647.5,-402.5,-455.0
0.98,466.41,886.7,-35.0,-35.0,-315.0
0.73,466.04,886.45,-490.0,87.5,-122.5
0.49,465.92,886.21,-472.5,-70.0,140.0
0.49,465.8,886.21,-472.5,-122.5,227.5
0.49,466.04,886.21,-192.5,-245.0,87.5
0.61,466.16,885.96,-192.5,-455.0,-315.0
0.73,466.41,885.96,-367.5,-787.5,-560.0
0.73,466.28,886.09,-560.0,-455.0,-525.0
0.49,466.28,886.45,-682.5,-315.0,-315.0
0.37,466.28,886.94,-227.5,-472.5,-87.5
0.24,466.28,887.67,105.0,-227.5,245.0
0.37,466.41,887.92,245.0,140.0,315.0
0.61,466.65,887.92,455.0,-210.0,17.5
0.73,466.77,887.92,542.5,-560.0,-437.5
0.73,466.77,887.92,805.0,-490.0,-367.5
0.73,466.77,887.43,192.5,-70.0,-350.0
0.49,466.53,887.06,-280.0,-175.0,-490.0
0.12,466.04,887.06,-385.0,-577.5,-402.5
-0.24,465.55,887.31,105.0,-455.0,122.5
-0.49,465.31,887.43,-122.5,-175.0,420.0
-0.61,465.06,887.31,-332.5,-87.5,507.5
-0.49,465.06,887.18,-402.5,-192.5,437.5
-0.37,465.06,887.06,-332.5,-350.0,385.0
0.0,465.19,887.18,-192.5,-385.0,262.5
0.24,465.55,887.31,-525.0,-192.5,0.0
0.49,465.8,887.55,-525.0,-262.5,-315.0
0.49,465.8,887.92,-70.0,-472.5,-262.5
0.49,465.8,888.53,420.0,-420.0,-87.5
0.49,465.92,888.77,525.0,-210.0,0.0
0.49,465.8,888.89,192.5,-315.0,-122.5
0.49,465.67,889.14,332.5,-385.0,-157.5
0.49,465.43,889.38,1050.0,-472.5,17.5
0.61,465.31,889.14,892.5,-227.5,17.5
0.85,465.43,888.77,367.5,-280.0,-227.5
0.98,465.43,888.4,70.0,-455.0,-542.5
0.98,465.31,888.28,280.0,-402.5,-472.5
0.73,465.06,888.04,0.0,-297.5,-437.5
0.37,464.82,887.67,-192.5,-420.0,-367.5
0.0,464.7,887.55,-175.0,-630.0,-315.0
-0.37,464.21,887.67,70.0,-437.5,-87.5
-0.73,463.97,887.67,0.0,-122.5,140.0
-0.98,463.97,887.31,-665.0,-175.0,245.0
-1.1,464.09,887.31,-1225.0,-455.0,210.0
-0.98,464.09,888.04,-735.0,-612.5,157.5
-0.85,464.09,889.14,525.0,-472.5,402.5
-0.49,464.33,889.62,822.5,-17.5,542.5
0.0,464.58,889.62,280.0,472.5,192.5
0.37,464.82,889.62,35.0,262.5,-315.0
0.49,464.58,889.62,735.0,-385.0,-455.0
0.61,464.33,889.62,1085.0,-647.5,-402.5
0.73,464.09,889.14,525.0,-507.5,-507.5
0.61,463.97,888.65,-140.0,-280.0,-647.5
0.37,463.72,888.53,-455.0,70.0,-455.0
0.24,463.6,888.53,-455.0,315.0,-367.5
0.0,463.48,888.53,-122.5,-17.5,-420.0
0.0,463.48,888.53,140.0,-315.0,-577.5
-0.24,463.36,888.4,-52.5,-175.0,-612.5
-0.49,463.36,888.53,-385.0,122.5,-332.5
-0.85,463.23,888.65,-717.5,262.5,-175.0
-1.22,463.23,889.01,-350.0,70.0,-17.5
-1.22,463.11,889.26,437.5,-297.5,315.0
-0.98,463.36,889.38,315.0,-140.0,192.5
-0.73,463.6,889.62,-35.0,87.5,-87.5
-0.49,463.72,889.87,350.0,35.0,-262.5
-0.37,463.84,889.99,735.0,-70.0,-437.5
-0.24,463.97,889.75,490.0,-367.5,-682.5
-0.49,463.72,889.75,350.0,-367.5,-717.5
-0.85,463.36,889.75,647.5,-262.5,-350.0
-1.34,462.99,889.14,297.5,-350.0,-17.5
-1.71,462.87,888.65,-455.0,-525.0,-35.0
-1.95,462.62,888.77,-630.0,-280.0,35.0
-2.07,462.5,889.14,-227.5,-35.0,157.5
-1.95,462.5,889.62,140.0,-227.5,-35.0
-1.71,462.62,890.11,525.0,-315.0,-420.0
-1.46,462.62,890.48,385.0,210.0,-560.0
-1.46,462.62,890.48,402.5,367.5,-595.0
-1.71,462.62,890.11,595.0,-350.0,-525.0
-1.95,462.62,889.75,227.5,-367.5,-245.0
-2.07,462.62,889.5,-297.5,297.5,-70.0
-2.2,462.62,889.38,-87.5,105.0,105.0
-2.2,462.62,889.26,140.0,-490.0,-105.0
-2.2,462.87,889.14,17.5,-455.0,-210.0
-2.2,463.11,889.01,-245.0,-192.5,-402.5
-2.32,463.11,889.14,105.0,-560.0,-542.5
-2.44,462.87,889.5,332.5,-770.0,-437.5
-2.68,462.5,889.87,420.0,-437.5,-122.5
-2.93,462.26,890.11,402.5,-35.0,105.0
-2.93,462.14,889.87,280.0,-227.5,0.0
-2.93,462.01,889.75,245.0,-455.0,-70.0
-2.81,462.01,889.87,332.5,-245.0,70.0
-2.68,462.01,889.62,157.5,-35.0,-157.5
-2.68,462.14,889.14,17.5,-87.5,-332.5
-2.93,462.14,888.77,-367.5,52.5,-332.5
-3.42,462.14,888.53,-770.0,-157.5,-332.5
-3.78,462.01,888.77,-490.0,-910.0,-157.5
-4.03,462.01,889.5,-245.0,-980.0,-17.5
-4.03,462.01,890.36,210.0,-140.0,385.0
-3.78,462.14,891.09,682.5,122.5,507.5
-3.54,462.38,891.45,1172.5,-227.5,227.5
-3.17,462.62,891.58,1190.0,-35.0,-35.0
-3.05,462.62,891.33,1207.5,157.5,-157.5
-2.93,462.62,890.84,1190.0,-157.5,-210.0
-2.93,462.5,889.99,525.0,-262.5,-472.5
-3.05,462.26,889.26,87.5,-455.0,-525.0
-3.42,461.89,889.01,0.0,-472.5,-210.0
-3.9,461.65,888.77,17.5,-315.0,70.0
-4.03,461.4,888.77,-70.0,-402.5,122.5
-4.15,461.4,889.14,122.5,-542.5,35.0
-4.15,461.28,889.5,700.0,-315.0,17.5
-4.39,461.4,889.38,1067.5,-332.5,227.5
-4.64,461.77,888.89,595.0,-350.0,52.5
-4.64,462.14,888.53,-280.0,-262.5,-52.5
-4.88,462.01,888.65,122.5,-490.0,140.0
-4.76,462.01,888.89,507.5,-385.0,437.5
-4.64,462.14,888.77,350.0,-122.5,280.0
-4.51,462.38,888.77,367.5,-420.0,105.0
-4.39,462.38,888.89,910.0,-525.0,192.5
-4.39,462.5,888.89,507.5,35.0,227.5
-4.39,462.5,888.65,280.0,70.0,122.5
-4.64,462.38,888.65,595.0,-577.5,210.0
-4.88,462.14,888.77,525.0,-577.5,262.5
-5.12,461.89,888.89,612.5,-175.0,542.5
-5.12,461.65,888.89,490.0,-17.5,665.0
-5.12,461.53,888.89,665.0,-420.0,700.0
-4.88,461.65,888.77,560.0,-525.0,647.5
-4.39,461.89,888.65,437.5,-332.5,525.0
-4.03,462.01,888.53,315.0,-490.0,280.0
-3.66,462.01,888.53,507.5,-700.0,140.0
-3.29,462.14,888.65,297.5,-525.0,52.5
-3.05,462.38,888.77,332.5,-367.5,-17.5
-2.93,462.62,888.89,770.0,-735.0,-192.5
-2.93,462.87,888.89,805.0,-1032.5,-280.0
-3.05,462.87,889.14,630.0,-542.5,-192.5
-3.29,462.87,889.38,717.5,-35.0,-35.0
-3.54,462.87,889.38,980.0,-420.0,35.0
-3.66,462.87,889.38,1172.5,-787.5,157.5
-3.9,462.75,889.5,875.0,-192.5,332.5
-3.9,462.75,889.38,875.0,280.0,525.0
-3.9,462.75,889.01,997.5,-350.0,402.5
-4.03,462.62,888.53,1102.5,-857.5,210.0
-4.03,462.62,887.92,857.5,-402.5,420.0
-4.03,462.62,887.06,157.5,0.0,350.0
-3.9,462.87,886.57,-647.5,-350.0,122.5
-3.66,462.87,886.82,-787.5,-472.5,140.0
-3.42,462.87,887.55,-210.0,-192.5,350.0
-3.17,463.11,888.28,577.5,-157.5,245.0
-2.93,463.6,888.65,1102.5,-630.0,35.0
-2.81,463.97,888.77,1312.5,-630.0,17.5
-2.68,464.21,888.77,1172.5,-175.0,0.0
-2.56,464.33,888.65,787.5,-157.5,-175.0
-2.56,464.09,888.65,875.0,-420.0,-210.0
-2.56,463.84,888.65,875.0,-245.0,-35.0
-2.68,463.72,888.65,560.0,262.5,35.0
-2.93,463.6,888.4,560.0,52.5,87.5
-3.17,463.6,888.28,647.5,-507.5,157.5
-3.05,463.6,888.16,840.0,-472.5,332.5
-2.93,463.72,887.92,1015.0,-227.5,210.0
-2.68,463.97,887.43,542.5,-455.0,-157.5
-2.68,464.09,886.94,542.5,-752.5,-192.5
-2.56,464.09,886.7,175.0,-455.0,-140.0
-2.44,464.33,886.45,-385.0,-227.5,-245.0
-2.44,464.45,886.7,-122.5,-402.5,-315.0
-2.44,464.58,886.94,332.5,-525.0,-192.5
-2.56,464.82,887.18,350.0,-525.0,-332.5
-2.68,464.94,887.67,472.5,-455.0,-455.0
-2.93,464.94,887.92,1260.0,-490.0,-157.5
-3.05,464.94,887.92,1400.0,-437.5,-105.0
-3.17,465.06,887.18,700.0,-210.0,-105.0
-3.42,465.06,886.7,280.0,-297.5,-105.0
-3.54,465.06,886.33,192.5,-525.0,0.0
-3.54,464.94,886.09,140.0,-665.0,122.5
-3.29,464.82,886.21,-52.5,-385.0,192.5
-3.17,464.7,886.33,-87.5,-122.5,70.0
-3.17,464.82,886.57,332.5,-262.5,17.5
-3.17,464.82,886.45,682.5,-472.5,140.0
-3.05,465.31,885.96,297.5,-472.5,-17.5
-2.93,465.55,885.72,-280.0,-490.0,-297.5
-2.93,465.55,885.72,-157.5,-595.0,-227.5
-2.93,465.55,885.72,-140.0,-577.5,-192.5
-2.81,465.55,885.96,35.0,-542.5,-105.0
-2.56,465.8,886.45,87.5,-647.5,-140.0
-2.44,465.8,886.94,175.0,-280.0,-332.5
-2.44,465.8,887.18,630.0,87.5,-105.0
-2.44,465.92,886.94,490.0,122.5,-52.5
-2.44,465.8,886.33,490.0,-402.5,-402.5
-2.68,465.67,885.72,332.5,-787.5,-402.5
-2.81,465.43,885.23,17.5,-437.5,-210.0
-2.81,465.55,884.87,-735.0,-262.5,-192.5
-2.81,465.55,884.74,-1242.5,-630.0,-315.0
-2.93,465.67,885.35,-805.0,-840.0,-210.0
-2.81,465.8,886.09,-192.5,-367.5,70.0
-2.81,466.16,886.57,332.5,-280.0,87.5
-2.81,466.28,886.7,892.5,-910.0,-157.5
-2.68,466.28,886.82,787.5,-1032.5,-420.0
-2.68,466.04,886.94,367.5,-227.5,-350.0
-2.93,465.67,886.94,157.5,105.0,-105.0
-3.17,465.31,886.82,192.5,-210.0,-70.0
-3.42,465.31,886.82,175.0,-595.0,-87.5
-3.66,465.06,886.7,70.0,-367.5,87.5
-3.66,465.06,886.7,210.0,-280.0,210.0
-3.42,465.06,886.7,595.0,-577.5,52.5
-3.17,465.06,886.45,805.0,-577.5,-175.0
-3.17,465.19,885.84,0.0,-140.0,-262.5
-3.17,465.19,885.11,-315.0,-140.0,-210.0
-3.29,465.31,884.74,-1050.0,-437.5,-350.0
-3.29,465.19,884.99,-1242.5,-455.0,-297.5
-3.42,465.19,885.84,-682.5,-122.5,70.0
-3.54,465.19,886.7,192.5,-455.0,192.5
-3.54,465.31,887.43,840.0,-927.5,52.5
-3.42,465.55,887.92,1190.0,-420.0,245.0
-3.17,465.55,887.92,700.0,612.5,350.0
-3.17,465.67,887.55,542.5,245.0,157.5
-2.93,465.55,887.06,595.0,-857.5,-192.5
-2.81,465.31,886.82,507.5,-822.5,-192.5
-2.68,464.94,886.7,-17.5,17.5,-17.5
-2.81,464.82,886.57,-175.0,-227.5,-70.0
-2.81,464.58,886.57,87.5,-980.0,-175.0
-2.93,464.58,886.7,122.5,-770.0,0.0
-2.81,464.58,887.06,105.0,35.0,280.0
-2.56,464.7,887.18,52.5,-122.5,35.0
-2.32,464.94,887.31,385.0,-840.0,-385.0
-2.2,465.06,887.67,402.5,-560.0,-350.0
-2.2,465.06,887.92,350.0,262.5,-140.0
-2.2,465.19,887.67,595.0,-35.0,-157.5
-2.44,465.31,887.43,595.0,-717.5,-367.5
-2.44,465.43,887.18,315.0,-682.5,-297.5
-2.68,465.43,886.82,192.5,-682.5,-87.5
-2.68,465.31,886.7,192.5,-787.5,-35.0
-2.44,465.06,886.82,367.5,-472.5,-17.5
-2.44,464.82,886.57,350.0,-87.5,-70.0
-2.44,464.94,885.96,-17.5,-402.5,-227.5
-2.56,465.06,885.6,-840.0,-910.0,-525.0
-2.68,465.06,885.96,-1330.0,-752.5,-437.5
-2.81,465.06,887.06,-822.5,35.0,17.5
-2.93,465.19,888.16,122.5,262.5,315.0
-3.05,465.43,888.89,1067.5,-542.5,262.5
-2.93,465.55,889.14,1207.5,-630.0,-35.0
-2.81,465.43,889.38,1190.0,105.0,-35.0
-2.81,465.19,889.14,1085.0,192.5,175.0
-2.81,465.06,888.65,682.5,-87.5,-52.5
-2.68,464.94,888.28,315.0,140.0,-52.5
-2.68,464.94,887.79,192.5,122.5,140.0
-2.68,464.94,887.31,-227.5,-192.5,35.0
-2.56,464.82,887.43,-420.0,-262.5,-175.0
-2.44,464.7,887.67,350.0,-175.0,-35.0
-2.2,464.58,887.92,840.0,70.0,0.0
-2.2,464.7,887.43,350.0,350.0,-245.0
-2.2,464.82,886.94,-560.0,507.5,-472.5
-2.56,464.58,886.82,-682.5,122.5,-612.5
-3.05,464.45,886.94,-315.0,-350.0,-262.5
-3.42,464.33,887.18,70.0,-210.0,105.0
-3.42,464.45,887.43,-227.5,70.0,70.0
-3.66,464.7,887.67,17.5,-70.0,17.5
-3.66,464.94,887.92,70.0,-52.5,17.5
-3.78,465.06,888.16,35.0,210.0,-70.0
-3.9,465.06,888.65,420.0,175.0,-122.5
-3.9,464.94,888.77,700.0,70.0,-87.5
-3.9,464.7,888.65,507.5,52.5,-105.0
-4.03,464.45,888.53,70.0,157.5,-87.5
-4.15,464.21,888.4,105.0,-70.0,70.0
-4.39,463.97,888.4,367.5,-542.5,192.5
-4.27,463.97,888.4,175.0,-227.5,280.0
-4.15,463.97,888.65,210.0,350.0,280.0
-4.15,464.09,888.53,262.5,140.0,210.0
-4.27,464.33,888.28,350.0,-385.0,17.5
-4.27,464.58,888.16,350.0,-490.0,-17.5
-4.39,464.7,888.16,385.0,-245.0,0.0
-4.27,464.82,888.16,192.5,-245.0,-122.5
-4.27,464.82,888.28,140.0,-17.5,-87.5
-4.39,464.58,888.65,105.0,542.5,35.0
-4.39,464.45,889.01,525.0,647.5,245.0
-4.39,464.33,889.14,1015.0,560.0,122.5
-4.27,464.33,888.77,1032.5,700.0,-35.0
-4.39,464.45,887.92,542.5,717.5,-297.5
-4.51,464.7,886.82,-577.5,280.0,-455.0
-4.76,464.7,886.45,-1172.5,-105.0,-560.0
-5.0,464.58,887.06,-822.5,87.5,-192.5
-5.12,464.33,887.92,-157.5,472.5,245.0
-5.12,464.33,888.53,490.0,157.5,140.0
-5.12,464.45,888.77,1032.5,-367.5,-87.5
-4.88,464.58,888.77,735.0,-17.5,-455.0
-4.88,464.58,888.53,245.0,367.5,-682.5
-5.12,464.21,888.4,-70.0,402.5,-647.5
-5.49,463.97,888.28,-192.5,332.5,-560.0
-5.86,463.72,888.28,-192.5,105.0,-455.0
-6.34,463.48,888.28,-332.5,-52.5,-262.5
-6.71,463.36,888.77,-175.0,-35.0,-87.5
-6.83,463.23,889.14,595.0,-105.0,157.5
-6.83,463.36,889.14,857.5,-192.5,-105.0
-6.71,463.48,888.77,437.5,-385.0,-525.0
-6.83,463.72,888.65,192.5,-315.0,-577.5
-7.08,463.84,888.4,-122.5,-245.0,-507.5
-7.2,463.84,888.4,-245.0,-577.5,-490.0
-7.32,463.84,889.01,140.0,-490.0,-402.5
-7.32,463.97,889.5,227.5,210.0,-210.0
-7.44,464.21,889.87,245.0,332.5,-350.0
-7.69,464.45,890.23,1032.5,-612.5,-350.0
-7.81,464.58,890.48,1522.5,-840.0,-350.0
-7.93,464.58,890.48,1067.5,140.0,-262.5
-8.3,464.58,890.11,787.5,490.0,-175.0
-8.66,464.45,889.38,962.5,-227.5,-122.5
-9.27,464.33,888.77,787.5,-700.0,-35.0
-9.76,464.21,888.28,472.5,-332.5,157.5
-10.0,464.09,887.92,367.5,17.5,367.5
-10.13,464.09,887.55,-17.5,262.5,157.5
-10.25,463.84,887.55,-420.0,577.5,17.5
-10.49,463.6,887.67,-157.5,875.0,262.5
-10.86,463.36,887.67,17.5,1015.0,525.0
-11.1,463.11,887.55,-105.0,700.0,577.5
-11.22,463.11,887.31,-70.0,175.0,577.5
-11.1,462.99,887.18,-402.5,280.0,647.5
-10.74,463.11,887.31,-560.0,682.5,647.5
-10.25,463.11,887.55,-227.5,595.0,490.0
-10.0,463.11,887.67,87.5,175.0,157.5
-9.64,463.36,887.67,-17.5,227.5,-122.5
-9.39,463.72,887.31,-910.0,297.5,-315.0
-9.27,463.97,887.55,-1330.0,-210.0,-560.0
-9.27,463.97,888.53,-402.5,-507.5,-402.5
-9.27,464.09,889.38,402.5,-280.0,-245.0
-9.27,464.21,889.62,612.5,-350.0,-332.5
-9.52,464.21,889.87,910.0,-752.5,-577.5
-9.76,463.84,889.87,997.5,-560.0,-542.5
-10.25,463.48,889.62,735.0,-17.5,-297.5
-10.74,462.87,888.89,-87.5,-17.5,-332.5
-11.22,462.38,888.4,-367.5,-472.5,-245.0
-11.71,461.89,888.4,-210.0,-577.5,0.0
-12.08,461.77,888.4,-455.0,-210.0,105.0
-12.32,461.65,888.65,-735.0,17.5,245.0
-12.44,461.4,889.14,-157.5,-122.5,402.5
-12.2,461.65,889.14,577.5,-280.0,350.0
-11.96,462.01,888.77,-87.5,-280.0,-157.5
-11.83,462.38,888.4,-490.0,-262.5,-385.0
-11.83,462.62,888.4,-472.5,-262.5,-507.5
-11.83,462.87,888.65,-507.5,-385.0,-560.0
-11.96,462.87,889.01,-192.5,-332.5,-420.0
-11.96,462.87,889.38,87.5,-122.5,-297.5
-12.2,462.87,889.5,402.5,-210.0,-280.0
-12.2,462.99,889.26,875.0,-770.0,-105.0
-11.96,463.23,888.65,577.5,-682.5,-367.5
-11.59,463.36,887.92,-647.5,-262.5,-1120.0
-11.71,462.87,887.67,-682.5,-472.5,-1032.5
-11.96,462.26,887.67,-350.0,-857.5,-875.0
-12.2,461.65,887.67,-910.0,-647.5,-752.5
-12.69,461.16,888.16,-1050.0,-122.5,-420.0
-13.05,460.67,888.65,-490.0,-52.5,-105.0
-13.3,460.55,888.77,-542.5,-420.0,-70.0
-13.42,460.55,889.01,-700.0,-472.5,-262.5
-13.66,460.43,889.38,-52.5,-735.0,0.0
-13.66,460.43,889.5,-70.0,-752.5,192.5
-13.42,460.67,889.87,-490.0,-542.5,-105.0
-13.05,460.67,890.48,-385.0,-227.5,-175.0
-12.81,460.79,890.97,87.5,-227.5,-227.5
-12.57,460.92,891.21,455.0,-560.0,-507.5
-12.44,460.67,891.33,840.0,-805.0,-595.0
-12.44,460.67,891.21,1085.0,-402.5,-455.0
-12.69,460.67,890.36,472.5,87.5,-490.0
-12.93,460.67,889.26,-420.0,-717.5,-577.5
-13.05,460.67,888.53,-770.0,-1557.5,-752.5
-13.05,460.67,888.53,-1085.0,-1137.5,-647.5
-12.93,460.43,889.26,-1032.5,-507.5,-437.5
-12.93,460.31,890.11,-52.5,-665.0,-350.0
-12.81,460.43,890.48,560.0,-1015.0,-420.0
-12.69,460.67,890.72,105.0,-717.5,-735.0
-12.93,460.43,890.97,35.0,-490.0,-822.5
-13.18,460.06,891.33,560.0,-682.5,-455.0
-13.3,459.82,891.33,525.0,-525.0,-175.0
-13.42,459.7,891.09,-245.0,-157.5,-227.5
-13.54,459.45,890.84,-350.0,-455.0,-350.0
-13.66,459.21,890.84,-122.5,-945.0,-210.0
-13.66,459.09,891.09,0.0,-630.0,-87.5
-13.54,458.96,891.21,-87.5,35.0,-35.0
-13.42,458.96,891.09,-140.0,-210.0,-192.5
-13.54,458.96,891.09,70.0,-805.0,-385.0
-13.66,458.96,890.97,-140.0,-682.5,-402.5
-13.66,458.96,891.09,-332.5,-87.5,-210.0
-13.79,458.96,891.21,-105.0,-157.5,-87.5
-13.79,458.96,891.33,175.0,-700.0,-140.0
-13.79,458.96,891.33,420.0,-787.5,-105.0
-13.79,458.96,891.09,-227.5,-402.5,-87.5
-13.79,458.96,891.09,-490.0,-455.0,-280.0
-13.66,458.72,891.58,-210.0,-525.0,-192.5
-13.66,458.48,892.06,87.5,-350.0,0.0
-13.54,458.11,892.55,525.0,-420.0,0.0
-13.42,457.99,892.67,840.0,-507.5,-17.5
-13.42,458.11,892.31,385.0,-210.0,-52.5
-13.66,458.11,891.82,-35.0,-402.5,-52.5
-13.66,458.11,891.7,-472.5,-472.5,-70.0
-13.66,457.99,891.82,-17.5,-385.0,17.5
-13.66,457.87,891.82,-70.0,-507.5,17.5
-13.66,457.74,891.94,157.5,-892.5,-122.5
-13.54,457.5,892.31,70.0,-735.0,-70.0
-13.42,457.5,892.67,210.0,-140.0,-17.5
-13.42,457.5,892.8,385.0,-455.0,-35.0
-13.42,457.26,892.8,490.0,-717.5,-87.5
-13.42,457.13,892.67,437.5,122.5,210.0
-13.42,457.26,892.06,0.0,385.0,105.0
-13.42,457.5,891.45,-787.5,-892.5,-437.5
-13.42,457.5,891.82,-647.5,-1435.0,-507.5
-13.18,457.26,892.92,-52.5,-297.5,-35.0
-13.18,457.13,893.77,472.5,402.5,227.5
-13.18,457.13,894.02,1015.0,-402.5,-52.5
-13.05,457.13,894.14,1260.0,-822.5,-140.0
-13.05,456.89,894.02,910.0,262.5,105.0
-13.18,456.77,893.41,350.0,717.5,175.0
-13.3,456.52,892.55,227.5,-332.5,157.5
-13.3,456.4,891.94,-52.5,-822.5,-35.0
-13.18,456.52,891.7,-367.5,-507.5,-52.5
-13.18,456.77,891.7,-822.5,-385.0,-35.0
-13.05,456.65,892.19,-630.0,-630.0,-105.0
-12.81,456.52,893.16,367.5,-507.5,-17.5
-12.44,456.52,893.53,927.5,0.0,-157.5
-12.44,456.52,893.28,507.5,17.5,-507.5
-12.69,456.52,893.16,245.0,-350.0,-630.0
-12.93,456.52,893.16,175.0,-420.0,-350.0
-13.18,456.52,893.28,-17.5,-105.0,-192.5
-13.18,456.52,893.53,140.0,-105.0,-192.5
-13.3,456.65,893.89,787.5,-315.0,-175.0
-13.42,456.77,893.77,630.0,-87.5,17.5
-13.66,456.89,893.28,157.5,-17.5,-105.0
-13.66,456.77,893.16,402.5,-612.5,-105.0
-13.66,456.52,893.04,577.5,-770.0,52.5
-13.66,456.28,893.04,192.5,-210.0,0.0
-13.66,456.16,892.92,-17.5,-52.5,52.5
-13.66,456.04,892.67,-87.5,-332.5,0.0
-13.79,456.04,892.55,-140.0,-630.0,-35.0
-13.79,456.04,892.8,-175.0,-577.5,-35.0
-13.79,456.04,893.04,122.5,-402.5,35.0
-13.54,456.04,893.28,385.0,-367.5,0.0
-13.42,455.79,893.53,437.5,-332.5,-280.0
-13.42,455.55,893.53,472.5,-157.5,-280.0
-13.66,455.18,893.28,1050.0,-192.5,210.0
-14.15,455.18,892.19,630.0,-367.5,122.5
-14.64,455.06,891.33,-560.0,-542.5,70.0
-15.13,454.57,891.21,-35.0,-87.5,542.5
-15.62,454.57,890.36,-542.5,647.5,962.5
-16.1,454.82,889.62,-2135.0,-70.0,875.0
-16.35,454.82,890.11,-2030.0,-927.5,612.5
-16.59,454.82,891.58,-822.5,-507.5,1102.5
-16.96,454.94,892.67,-367.5,122.5,1942.5
-17.08,455.06,893.41,192.5,-87.5,1977.5
-16.96,455.3,893.77,542.5,-665.0,1820.0
-16.71,455.3,894.14,332.5,-472.5,1802.5
-16.35,455.06,894.75,262.5,192.5,1837.5
-15.74,454.82,894.99,525.0,-175.0,1610.0
-14.88,454.33,895.48,525.0,-1190.0,1242.5
-13.66,454.08,896.09,1032.5,-1207.5,997.5
-12.57,454.08,896.21,962.5,-385.0,735.0
-11.47,454.57,895.97,630.0,-700.0,17.5
-10.74,455.06,895.85,1190.0,-1645.0,-490.0
-10.13,455.43,895.72,1715.0,-1452.5,-595.0
-9.76,455.79,894.99,1102.5,-822.5,-770.0
-9.64,456.28,893.89,525.0,-1312.5,-1207.5
-9.76,456.16,893.28,262.5,-1890.0,-1190.0
-10.25,456.04,893.04,87.5,-1312.5,-700.0
-10.49,456.04,892.92,-175.0,-770.0,-402.5
-10.61,456.04,893.16,122.5,-1242.5,-525.0
-10.86,456.04,893.53,665.0,-1487.5,-490.0
-10.98,455.67,893.77,647.5,-752.5,-17.5
-11.22,455.55,893.89,770.0,-210.0,367.5
-11.22,455.67,893.65,770.0,-437.5,315.0
-11.1,455.79,893.28,420.0,-490.0,210.0
-10.98,456.04,893.04,87.5,0.0,122.5
-10.86,455.91,893.04,-70.0,52.5,140.0
-10.74,455.67,893.28,122.5,-140.0,87.5
-10.49,455.43,893.53,437.5,-17.5,297.5
-10.25,455.43,893.65,682.5,105.0,297.5
-10.0,455.43,893.53,612.5,-227.5,105.0
-9.88,455.55,893.28,350.0,-420.0,-140.0
-9.76,455.79,893.28,210.0,-175.0,-122.5
-9.76,455.91,893.16,245.0,35.0,-210.0
-9.64,455.91,893.16,315.0,140.0,-332.5
-9.76,455.79,893.04,717.5,157.5,-35.0
-9.88,455.79,892.55,367.5,35.0,-175.0
-10.0,455.91,892.06,-297.5,-315.0,-227.5
-10.13,455.91,891.7,-595.0,-262.5,-17.5
-10.0,456.04,891.58,-647.5,-227.5,52.5
-9.88,456.16,891.58,-507.5,-612.5,-175.0
-9.64,456.16,891.94,-35.0,-1032.5,-350.0
-9.64,456.04,892.55,140.0,-822.5,-385.0
-9.64,455.79,893.04,122.5,-280.0,-210.0
-9.76,455.55,893.53,227.5,-105.0,-140.0
-9.76,455.3,893.77,472.5,-175.0,-70.0
-9.76,455.3,893.77,367.5,52.5,-122.5
-9.76,455.3,893.53,17.5,175.0,-280.0
-9.88,455.3,893.16,122.5,-192.5,-280.0
-10.0,455.3,892.92,-52.5,-542.5,-350.0
-10.0,455.3,892.8,-35.0,-525.0,-297.5
-10.0,455.43,893.04,-17.5,-315.0,-385.0
-9.88,455.43,893.53,140.0,-35.0,-455.0
-10.13,455.43,893.65,542.5,175.0,-210.0
-10.49,455.55,893.28,70.0,210.0,-87.5
-10.98,455.67,892.67,-140.0,-437.5,-105.0
-11.47,455.67,892.55,-140.0,-1050.0,17.5
-11.59,455.55,892.67,-105.0,-542.5,157.5
-11.59,455.3,893.04,-52.5,-105.0,402.5
-11.47,455.18,893.28,-17.5,-262.5,280.0
-11.47,455.06,893.53,350.0,-525.0,70.0
-11.47,454.82,893.77,385.0,-210.0,210.0
-11.47,454.69,893.65,210.0,420.0,350.0
-11.47,454.69,893.28,-245.0,262.5,280.0
-11.47,454.69,893.04,-245.0,-595.0,70.0
-11.47,454.57,893.16,-52.5,-717.5,227.5
-11.35,454.45,893.28,-87.5,-157.5,525.0
-11.22,454.69,893.16,-315.0,-297.5,367.5
-10.86,454.82,893.28,-332.5,-857.5,0.0
-10.49,454.82,893.77,-35.0,-770.0,-87.5
-10.49,454.82,894.14,262.5,-192.5,87.5
-10.37,454.94,894.14,-52.5,-157.5,-87.5
-10.37,454.94,894.26,-17.5,-700.0,-105.0
-10.37,454.82,894.38,262.5,-892.5,-52.5
-10.13,454.82,894.5,402.5,-840.0,-192.5
-10.0,454.57,894.75,245.0,-822.5,-437.5
-10.13,454.33,894.99,927.5,-682.5,-140.0
-10.37,454.08,894.75,752.5,-402.5,122.5
-10.49,453.84,894.26,192.5,-332.5,122.5
-10.74,453.72,893.53,367.5,-507.5,175.0
-10.86,453.84,892.55,-210.0,-507.5,122.5
-10.98,453.84,891.94,-1015.0,-892.5,35.0
-11.1,453.84,892.06,-997.5,-1085.0,52.5
-11.1,453.84,892.67,-735.0,-787.5,227.5
-11.1,453.96,893.53,-437.5,-630.0,385.0
-10.86,453.96,894.38,122.5,-682.5,420.0
-10.49,453.84,895.24,717.5,-542.5,315.0
-10.13,453.84,895.85,1417.5,-402.5,210.0
-9.88,453.84,895.72,1155.0,17.5,122.5
-9.76,453.84,895.24,700.0,105.0,35.0
-9.64,453.72,894.63,560.0,-192.5,0.0
-9.52,453.6,893.89,105.0,-402.5,-105.0
-9.52,453.6,893.41,-280.0,-577.5,-122.5
-9.52,453.35,893.28,-245.0,-840.0,-140.0
-9.27,453.23,893.77,367.5,-927.5,-210.0
-9.27,453.11,894.02,577.5,-472.5,-140.0
-9.39,453.23,894.02,17.5,-122.5,-87.5
-9.52,453.35,894.02,52.5,-402.5,-70.0
-9.64,453.35,894.02,402.5,-612.5,-17.5
-9.52,453.6,894.14,490.0,-490.0,52.5
-9.52,453.6,894.14,315.0,-420.0,17.5
-9.52,453.6,894.26,210.0,-490.0,-17.5
-9.52,453.6,894.38,490.0,-507.5,0.0
-9.52,453.47,894.63,525.0,-175.0,105.0
-9.39,453.35,894.63,525.0,35.0,210.0
-9.27,453.47,894.5,507.5,-140.0,87.5
-9.15,453.47,894.26,752.5,-682.5,-87.5
-9.15,453.6,894.14,350.0,-507.5,-227.5
-9.15,453.47,894.02,0.0,-17.5,-157.5
-9.27,453.35,894.02,227.5,-332.5,70.0
-9.27,453.23,893.89,175.0,-805.0,-35.0
-9.27,453.11,894.14,35.0,-472.5,-52.5
-9.27,453.11,894.5,245.0,70.0,122.5
-9.27,453.11,894.63,507.5,-122.5,175.0
-9.39,453.11,894.5,682.5,-560.0,52.5
-9.27,453.23,894.63,647.5,-507.5,105.0
-9.27,453.35,894.5,490.0,-280.0,70.0
-9.03,453.47,894.5,525.0,-350.0,17.5
-8.91,453.47,894.38,437.5,-245.0,105.0
-8.66,453.6,894.26,157.5,-35.0,35.0
-8.42,453.84,894.26,87.5,-245.0,-297.5
-8.3,453.84,894.14,175.0,-507.5,-332.5
-8.42,453.6,894.14,297.5,-472.5,-332.5
-8.54,453.6,894.26,560.0,-630.0,-262.5
-8.78,453.47,894.14,385.0,-507.5,-210.0
-9.15,453.35,894.02,297.5,-420.0,-52.5
-9.39,453.35,894.02,52.5,-350.0,280.0
-9.39,453.35,894.02,-245.0,-87.5,245.0
-9.39,453.35,894.14,-210.0,-262.5,87.5
-9.52,453.35,894.5,717.5,-822.5,227.5
-9.39,453.35,894.63,962.5,-682.5,367.5
-9.27,453.6,894.5,472.5,-140.0,280.0
-9.27,453.72,894.38,385.0,-262.5,175.0
-9.15,453.84,893.89,402.5,-560.0,122.5
-9.27,453.96,893.28,-122.5,-577.5,-17.5
-9.27,453.84,893.04,-542.5,-560.0,0.0
-9.27,453.6,893.28,-245.0,-525.0,192.5
-9.15,453.35,893.77,297.5,-595.0,350.0
-8.91,453.47,894.26,17.5,-245.0,105.0
-8.78,453.6,894.63,70.0,-52.5,17.5
-8.54,453.6,894.99,560.0,-52.5,17.5
-8.66,453.6,894.99,1190.0,-87.5,87.5
-8.78,453.6,894.26,962.5,-332.5,87.5
-8.91,453.6,893.53,-105.0,-542.5,122.5
-8.91,453.6,893.41,-367.5,-507.5,210.0
-8.66,453.47,893.65,-122.5,-455.0,210.0
-8.54,453.72,894.02,192.5,-665.0,122.5
-8.3,453.84,894.26,472.5,-1050.0,-105.0
-8.3,453.96,894.75,647.5,-822.5,-192.5
-8.05,453.84,895.24,787.5,-192.5,-70.0
-7.81,453.72,895.6,875.0,140.0,0.0
-7.69,453.47,895.72,1015.0,-52.5,-105.0
-7.69,453.35,895.6,1032.5,17.5,-35.0
-7.69,453.35,894.99,560.0,245.0,-17.5
-7.69,453.6,894.14,87.5,-315.0,-332.5
-7.81,453.6,893.53,297.5,-1295.0,-455.0
-7.81,453.6,893.53,262.5,-1207.5,-262.5
-7.69,453.72,893.77,262.5,-315.0,-262.5
-7.69,453.84,893.65,315.0,-490.0,-297.5
-7.69,454.08,893.53,262.5,-1015.0,-472.5
-7.81,454.08,893.89,245.0,-682.5,-437.5
-7.93,454.08,894.38,227.5,-245.0,-262.5
-7.93,454.08,894.99,595.0,-455.0,-192.5
-8.05,453.96,895.24,1155.0,-612.5,-52.5
-8.05,454.08,895.11,1085.0,-280.0,-122.5
-8.05,454.33,894.5,840.0,-105.0,-280.0
-8.3,454.33,893.53,717.5,-385.0,-210.0
-8.78,454.33,892.55,332.5,-752.5,35.0
-9.15,454.33,891.45,-245.0,-1050.0,280.0
-9.27,454.21,890.84,-962.5,-997.5,402.5
-9.15,454.21,891.09,-1312.5,-682.5,332.5
-9.03,454.21,892.06,-1102.5,-507.5,175.0
-8.78,454.21,893.41,-245.0,-455.0,105.0
-8.66,454.21,894.5,665.0,-525.0,175.0
-8.54,454.21,894.99,1085.0,-437.5,315.0
-8.3,454.08,895.24,1260.0,-280.0,472.5
-7.93,454.21,894.99,840.0,227.5,420.0
-7.69,454.45,894.38,210.0,262.5,87.5
-7.44,454.57,893.77,35.0,-315.0,-157.5
-7.32,454.57,893.28,175.0,-735.0,-245.0
-7.32,454.57,893.04,87.5,-875.0,-280.0
-7.32,454.57,893.04,-315.0,-717.5,-227.5
-7.2,454.57,893.65,-315.0,-350.0,-245.0
-7.2,454.45,894.26,262.5,-280.0,-140.0
-7.2,454.45,894.75,682.5,-437.5,-157.5
-7.32,454.45,894.99,1137.5,-665.0,-175.0
-7.32,454.45,894.99,892.5,-280.0,-140.0
-7.44,454.45,894.5,297.5,140.0,-35.0
-7.56,454.33,894.26,105.0,-70.0,175.0
-7.56,454.33,893.89,315.0,-350.0,192.5
-7.44,454.57,893.65,210.0,-385.0,52.5
-7.44,454.57,893.53,-105.0,-332.5,-245.0
-7.56,454.69,893.65,227.5,-647.5,-245.0
-7.69,454.57,893.77,735.0,-857.5,52.5
-7.69,454.82,893.65,560.0,-455.0,262.5
-7.69,455.06,893.53,-315.0,-70.0,0.0
-7.69,455.06,893.77,-350.0,-315.0,-87.5
-7.81,454.82,894.38,385.0,-560.0,245.0
-7.81,454.69,894.87,840.0,-17.5,665.0
-7.56,454.82,894.99,542.5,577.5,542.5
-7.44,454.82,894.87,805.0,17.5,105.0
-7.44,454.82,894.5,1540.0,-577.5,35.0
-7.44,454.94,893.28,910.0,-297.5,87.5
-7.56,455.18,892.06,-980.0,-122.5,-35.0
-7.56,455.18,891.94,-1295.0,-490.0,-52.5
-7.32,454.94,892.8,-647.5,-595.0,0.0
-7.32,454.82,894.02,315.0,-595.0,87.5
-7.32,454.82,894.99,1260.0,-612.5,210.0
-7.32,454.82,895.48,1592.5,-297.5,315.0
-7.32,454.82,895.48,1330.0,122.5,332.5
-7.32,454.82,895.11,1137.5,-17.5,280.0
-7.32,454.57,894.63,1155.0,-490.0,192.5
-7.32,454.33,894.02,875.0,-420.0,245.0
-7.32,454.21,893.28,262.5,-105.0,402.5
-7.08,454.08,892.92,-105.0,-420.0,157.5
-7.08,454.08,893.04,-262.5,-577.5,-70.0
-6.83,454.08,893.41,192.5,-227.5,52.5
-6.83,454.21,893.53,665.0,105.0,-35.0
-6.95,454.57,893.16,787.5,-612.5,-227.5
-7.2,454.69,892.8,577.5,-1155.0,-140.0
-7.44,454.82,892.43,175.0,-770.0,70.0
-7.56,454.94,892.55,-682.5,-192.5,210.0
-7.56,455.06,893.04,-210.0,-245.0,297.5
-7.56,455.06,893.65,892.5,-630.0,280.0
-7.56,455.3,893.77,1015.0,-577.5,140.0
-7.56,455.43,893.65,525.0,-52.5,52.5
-7.81,455.3,893.53,210.0,297.5,227.5
-8.17,455.06,893.53,455.0,157.5,525.0
-8.3,454.94,893.53,665.0,-332.5,647.5
-8.17,454.82,893.41,735.0,-752.5,525.0
-8.05,454.69,893.53,525.0,-385.0,717.5
-7.69,454.82,893.28,70.0,227.5,840.0
-7.32,455.06,893.04,-52.5,-122.5,700.0
-6.83,455.3,893.04,-35.0,-630.0,245.0
-6.34,455.55,893.28,315.0,-595.0,0.0
-5.86,455.55,893.53,700.0,-490.0,-122.5
-5.49,455.67,893.65,822.5,-857.5,-367.5
-5.37,455.79,893.65,682.5,-997.5,-402.5
-5.37,455.91,893.77,437.5,-630.0,-455.0
-5.37,455.79,893.89,857.5,-647.5,-315.0
-5.61,455.79,893.89,822.5,-525.0,-262.5
-5.86,455.67,893.53,682.5,-577.5,-227.5
-5.98,455.55,893.04,-17.5,-577.5,-210.0
-6.22,455.3,893.04,227.5,-560.0,-17.5
-6.47,455.06,892.8,1085.0,-822.5,227.5
-6.59,455.3,892.06,787.5,-1330.0,157.5
-6.59,455.55,891.45,-210.0,-1452.5,-122.5
-6.47,455.55,891.58,-105.0,-1207.5,-87.5
-6.22,455.55,892.06,0.0,-595.0,140.0
-5.98,455.79,892.19,-210.0,-122.5,35.0
-5.61,455.91,892.43,-227.5,-315.0,-17.5
-5.37,455.91,892.8,175.0,-560.0,-35.0
-5.12,456.04,893.16,717.5,-420.0,122.5
-5.12,456.28,892.92,665.0,-175.0,210.0
-4.88,456.52,892.19,472.5,-857.5,-227.5
-4.51,456.65,891.82,297.5,-1540.0,-735.0
-4.27,456.65,891.58,735.0,-1470.0,-875.0
-4.15,456.77,891.33,-87.5,-1137.5,-735.0
-4.03,456.77,891.33,-1172.5,-595.0,-752.5
-4.03,456.89,891.82,-1032.5,-472.5,-455.0
-4.15,457.01,892.43,-437.5,-682.5,-490.0
-4.15,457.13,893.16,262.5,-735.0,-665.0
-4.39,457.13,893.53,770.0,-875.0,-735.0
-4.64,456.89,893.65,997.5,-875.0,-577.5
-4.64,456.52,893.65,140.0,-472.5,-472.5
-4.76,456.04,893.89,315.0,-297.5,-350.0
-4.88,455.67,893.89,735.0,-315.0,17.5
-4.88,455.67,893.65,455.0,-332.5,17.5
-4.88,455.67,893.53,-17.5,-227.5,-175.0
-4.76,455.67,893.53,-52.5,52.5,-140.0
-4.64,455.79,893.53,525.0,-122.5,-87.5
-4.64,455.79,893.04,787.5,-437.5,-332.5
-4.64,455.91,892.43,700.0,-980.0,-455.0
-4.64,455.91,892.06,315.0,-997.5,-385.0
-4.64,455.91,891.82,-52.5,-490.0,-175.0
-4.51,455.91,891.82,-455.0,-157.5,-210.0
-4.39,456.04,892.06,-210.0,-227.5,-455.0
-4.64,455.91,892.55,455.0,-367.5,-192.5
-4.76,456.04,892.8,717.5,-140.0,-52.5
-4.88,456.04,892.67,752.5,-17.5,-35.0
-5.12,456.04,892.31,595.0,-175.0,70.0
-5.25,456.04,891.94,455.0,-385.0,17.5
-5.37,456.04,891.45,175.0,-455.0,-17.5
-5.37,456.04,891.21,-35.0,-490.0,105.0
-5.37,455.91,891.09,-227.5,-595.0,17.5
-5.25,455.79,891.45,-192.5,-682.5,35.0
-5.12,455.79,891.94,-52.5,-175.0,157.5
-5.0,455.79,892.19,-17.5,227.5,262.5
-4.88,456.04,892.31,262.5,-70.0,140.0
-4.76,456.16,892.31,525.0,-647.5,-87.5
-4.64,456.28,892.31,560.0,-962.5,-175.0
-4.51,456.28,892.31,315.0,-525.0,-192.5
-4.39,456.28,892.43,-35.0,122.5,-105.0
-4.39,456.4,892.31,-17.5,105.0,-122.5
-4.51,456.4,892.31,157.5,-455.0,-210.0
-4.51,456.28,892.43,192.5,-402.5,-175.0
-4.64,456.16,892.55,385.0,-157.5,-87.5
-4.64,456.04,892.55,560.0,-227.5,-35.0
-4.76,456.04,892.55,472.5,-525.0,-227.5
-4.88,455.91,892.43,507.5,-420.0,17.5
-4.88,455.79,892.43,665.0,-157.5,297.5
-4.76,455.91,892.19,420.0,-280.0,17.5
-4.64,456.04,891.94,420.0,-752.5,-245.0
-4.64,456.04,891.94,262.5,-542.5,-175.0
-4.51,456.04,891.94,52.5,157.5,-245.0
-4.64,455.79,891.7,332.5,-157.5,-175.0
-4.88,455.79,891.33,595.0,-892.5,-157.5
-5.12,455.79,890.84,-140.0,-945.0,-105.0
-5.0,455.91,891.09,-1085.0,-455.0,-35.0
-5.0,456.04,891.82,-455.0,-332.5,87.5
-4.88,456.28,892.55,367.5,-542.5,70.0
-4.88,456.4,892.67,962.5,-525.0,-70.0
-5.0,456.4,892.31,1120.0,-332.5,35.0
-5.12,456.16,891.45,455.0,-332.5,52.5
-5.12,455.91,890.72,-542.5,-472.5,-52.5
-5.12,455.55,890.84,-787.5,-402.5,-52.5
-5.12,455.18,891.21,-245.0,-122.5,105.0
-5.12,455.06,891.45,-105.0,-175.0,210.0
-5.12,455.3,891.58,35.0,-647.5,-17.5
-5.0,455.3,891.82,367.5,-997.5,35.0
-4.64,455.43,892.19,507.5,-420.0,87.5
-4.39,455.55,892.06,595.0,35.0,0.0
-4.15,455.91,891.58,350.0,-490.0,-350.0
-4.03,456.04,891.09,0.0,-1032.5,-542.5
-4.15,455.79,891.09,-437.5,-367.5,-245.0
-4.15,455.67,891.33,-507.5,17.5,-157.5
-4.27,455.55,891.58,87.5,-857.5,-140.0
-4.27,456.04,891.82,910.0,-1487.5,0.0
-3.78,456.52,892.31,525.0,-875.0,-577.5
-3.42,456.52,892.8,157.5,-472.5,-927.5
-3.29,455.79,893.16,1505.0,-857.5,-507.5
-3.17,455.3,892.55,1960.0,-962.5,-262.5
-2.93,455.55,890.84,717.5,-682.5,-595.0
-3.29,456.04,889.14,-577.5,-1172.5,-1260.0
-3.9,456.65,888.16,-1312.5,-2310.0,-1487.5
-4.39,456.65,888.89,-1557.5,-2782.5,-1260.0
-4.39,456.04,890.97,-910.0,-2047.5,-752.5
-4.27,455.3,893.41,525.0,-962.5,-192.5
-4.27,455.06,894.99,1470.0,-140.0,-17.5
-4.64,455.06,895.24,1960.0,-52.5,-35.0
-5.37,455.3,894.5,2187.5,-350.0,210.0
-5.86,455.55,893.28,1575.0,-472.5,560.0
-5.86,455.43,892.06,787.5,-262.5,717.5
-5.49,455.3,891.21,70.0,35.0,595.0
-4.88,455.06,890.72,-210.0,262.5,472.5
-4.39,454.94,890.36,-210.0,315.0,420.0
-3.78,454.82,890.23,-350.0,472.5,210.0
-3.05,454.69,890.36,87.5,595.0,-17.5
-2.44,454.69,890.36,245.0,770.0,-87.5
-1.71,454.94,889.87,-210.0,997.5,-175.0
-1.1,455.3,889.62,-840.0,682.5,-665.0
-0.61,455.67,889.62,-1067.5,437.5,-1207.5
-0.49,455.91,890.11,-840.0,525.0,-1067.5
-0.73,456.16,890.72,-472.5,437.5,-857.5
-0.98,456.28,891.33,-140.0,-140.0,-962.5
-1.34,456.16,892.06,665.0,-630.0,-1015.0
-1.95,455.79,892.43,1225.0,-437.5,-630.0
-2.56,455.79,891.94,542.5,70.0,-560.0
-3.29,455.67,891.33,-210.0,-192.5,-700.0
-3.9,455.55,891.09,-140.0,-665.0,-647.5
-4.64,455.3,891.09,-105.0,-420.0,-437.5
-4.88,455.06,891.58,-70.0,350.0,-437.5
-5.25,454.82,891.82,542.5,980.0,-367.5
-5.73,454.57,891.7,437.5,1137.5,-105.0
-6.1,454.33,891.09,-87.5,892.5,0.0
-6.59,454.08,890.6,-315.0,472.5,280.0
-6.83,454.08,890.36,-490.0,175.0,490.0
-6.83,454.45,890.23,-752.5,140.0,385.0
-6.59,454.57,890.6,-1015.0,140.0,350.0
-6.34,454.57,891.33,-612.5,52.5,490.0
-5.98,454.57,892.19,105.0,-262.5,402.5
-5.49,454.69,892.67,612.5,-455.0,-35.0
-5.37,454.82,892.8,542.5,-105.0,-367.5
-5.73,454.82,892.55,455.0,-192.5,-192.5
-6.1,454.94,891.82,70.0,-752.5,-245.0
-6.1,454.82,891.82,-385.0,-1365.0,-630.0
-6.1,454.57,892.55,-262.5,-1032.5,-752.5
-6.1,454.21,893.41,507.5,-175.0,-402.5
-6.59,454.33,893.65,612.5,35.0,-262.5
-7.08,454.57,893.65,350.0,-770.0,-542.5
-7.81,454.33,894.02,647.5,-1102.5,-332.5
-8.05,453.84,894.38,980.0,-245.0,350.0
-8.3,453.6,894.5,1102.5,105.0,402.5
-8.42,453.6,894.26,1330.0,-700.0,140.0
-8.66,453.6,893.89,1050.0,-1067.5,192.5
-8.78,453.47,893.53,630.0,-262.5,560.0
-8.78,453.6,893.16,420.0,350.0,1015.0
-8.54,453.72,892.55,560.0,-70.0,875.0
-8.17,454.08,891.82,542.5,-665.0,472.5
-7.81,454.33,890.97,87.5,-752.5,297.5
-7.56,454.45,890.48,-210.0,-735.0,122.5
-7.44,454.45,890.23,-682.5,-647.5,140.0
-7.32,454.45,890.6,-840.0,-437.5,245.0
-7.44,454.57,891.09,-437.5,-595.0,297.5
-7.44,454.45,891.82,-227.5,-647.5,297.5
-7.32,454.21,892.92,-17.5,-245.0,367.5
-7.2,453.84,893.77,770.0,210.0,612.5
-6.95,453.72,894.02,945.0,175.0,437.5
-6.83,453.6,893.89,700.0,-70.0,227.5
-6.83,453.6,893.65,735.0,52.5,332.5
-6.71,453.6,893.16,490.0,210.0,262.5
-6.59,453.84,892.31,507.5,-175.0,157.5
-6.34,454.08,891.33,227.5,-822.5,-210.0
-6.34,454.33,890.84,-472.5,-1382.5,-542.5
-6.22,454.33,891.09,-875.0,-1102.5,-402.5
-6.1,454.33,892.06,-770.0,-175.0,-17.5
-6.1,454.21,893.28,70.0,350.0,175.0
-6.34,454.21,894.02,1032.5,262.5,210.0
-6.71,454.21,893.77,1452.5,-140.0,87.5
-7.08,454.08,893.16,875.0,-402.5,210.0
-7.32,453.84,892.8,437.5,-437.5,385.0
-7.32,453.47,892.55,262.5,-367.5,560.0
-7.08,453.23,892.43,-175.0,-122.5,560.0
-6.71,453.11,892.43,-210.0,-157.5,367.5
-6.34,453.11,892.67,192.5,-332.5,227.5
-5.98,453.35,892.67,245.0,-210.0,87.5
-5.73,453.72,892.55,262.5,52.5,-52.5
-5.61,454.08,892.31,227.5,-210.0,-367.5
-5.61,454.45,891.82,175.0,-752.5,-525.0
-5.73,454.57,891.7,-385.0,-770.0,-647.5
-5.86,454.33,892.19,-210.0,-490.0,-437.5
-6.1,454.08,892.67,227.5,-350.0,-52.5
-6.34,454.08,892.8,542.5,-420.0,105.0
-6.47,454.21,892.67,647.5,-507.5,17.5
-6.59,454.33,892.55,577.5,-630.0,-175.0
-6.83,454.08,892.31,525.0,-647.5,-35.0
-6.83,453.84,892.06,157.5,-157.5,122.5
-6.83,453.72,891.94,-35.0,105.0,70.0
-6.83,453.6,891.94,-52.5,-210.0,105.0
-6.83,453.35,891.82,227.5,-140.0,262.5
-6.83,453.6,891.82,-192.5,245.0,262.5
-6.59,453.6,891.82,-525.0,-105.0,-70.0
-6.34,453.47,892.31,105.0,-787.5,-245.0
-6.34,453.35,892.92,927.5,-490.0,17.5
-6.22,453.35,892.8,1032.5,157.5,262.5
-6.1,453.72,892.19,472.5,-70.0,17.5
-6.1,453.84,891.7,-35.0,-647.5,-280.0
-6.1,453.96,891.7,17.5,-542.5,-262.5
-5.98,454.08,891.58,-35.0,-157.5,-157.5
-5.98,454.08,891.7,17.5,-700.0,-420.0
-6.1,453.84,892.06,560.0,-1260.0,-577.5
-6.1,453.72,892.8,560.0,-315.0,-367.5
-6.34,453.6,892.92,507.5,350.0,-210.0
-6.59,453.6,892.55,647.5,-105.0,-140.0
-6.59,453.47,892.31,700.0,-402.5,-262.5
-6.83,453.23,891.94,752.5,-35.0,-105.0
-7.08,453.35,891.33,385.0,245.0,-35.0
-7.32,453.35,890.48,-455.0,-245.0,-87.5
-7.44,453.35,890.36,-1015.0,-577.5,-122.5
-7.2,453.23,891.09,-717.5,-350.0,-52.5
-7.08,453.11,892.31,175.0,-227.5,70.0
-6.83,453.11,893.16,1102.5,-315.0,245.0
-6.59,453.35,893.53,1435.0,-227.5,245.0
-6.34,453.6,893.28,892.5,87.5,-35.0
-5.98,453.6,892.92,700.0,17.5,-402.5
-5.73,453.47,892.55,927.5,-402.5,-490.0
-5.61,453.35,891.82,787.5,-577.5,-455.0
-5.73,453.35,891.09,17.5,-577.5,-577.5
-5.98,453.6,890.36,-717.5,-595.0,-665.0
-6.34,453.47,890.36,-630.0,-752.5,-420.0
-6.59,453.6,890.6,-175.0,-752.5,-210.0
-6.59,453.72,891.09,-52.5,-682.5,-437.5
-6.95,453.6,891.7,297.5,-805.0,-560.0
-7.32,453.35,892.19,770.0,-525.0,-52.5
-7.69,453.35,892.19,350.0,315.0,315.0
-8.05,453.47,891.82,-262.5,297.5,140.0
-8.42,453.6,891.7,-122.5,-507.5,105.0
-8.54,453.6,891.7,437.5,-770.0,367.5
-8.54,453.72,891.82,35.0,-280.0,507.5
-8.3,453.6,892.06,-367.5,105.0,297.5
-7.93,453.47,892.43,35.0,-157.5,245.0
-7.56,453.35,892.8,367.5,-332.5,227.5
-7.32,453.47,893.16,350.0,-87.5,70.0
-7.08,453.6,893.41,350.0,-17.5,-140.0
-7.08,453.47,893.53,665.0,-350.0,-227.5
-7.2,453.35,893.41,1085.0,-682.5,-175.0
-7.32,453.11,893.04,805.0,-612.5,-122.5
-7.44,452.99,892.55,192.5,-437.5,-122.5
-7.69,452.62,892.31,-87.5,-525.0,-87.5
-7.93,452.38,892.31,70.0,-455.0,227.5
-8.05,452.38,891.94,192.5,-350.0,560.0
-8.05,452.74,891.33,-192.5,-560.0,385.0
-8.05,452.99,890.84,-52.5,-1207.5,157.5
-7.81,453.23,890.6,-315.0,-1347.5,-17.5
-7.56,453.47,890.97,-682.5,-857.5,-262.5
-7.32,453.47,891.82,-700.0,-367.5,-245.0
-7.32,453.23,892.8,-122.5,52.5,-17.5
-7.56,453.11,893.53,490.0,245.0,332.5
-7.69,452.99,893.53,332.5,367.5,420.0
-7.93,452.86,893.53,752.5,175.0,385.0
-8.05,452.86,892.8,805.0,-210.0,525.0
-8.3,452.99,891.7,0.0,-367.5,490.0
-8.17,453.11,890.84,-1242.5,-490.0,455.0
-7.93,453.11,891.09,-1557.5,-630.0,262.5
-7.56,452.86,892.06,-840.0,-507.5,297.5
-7.08,452.86,893.53,192.5,-157.5,315.0
-6.59,452.86,894.26,525.0,-140.0,70.0
-6.59,452.86,894.87,822.5,-280.0,-87.5
-6.47,452.74,895.24,1120.0,-175.0,52.5
-6.22,452.62,895.24,927.5,192.5,17.5
-5.98,452.5,895.11,805.0,175.0,-122.5
-5.86,452.38,894.63,980.0,-227.5,-227.5
-5.86,452.38,893.77,910.0,-927.5,-245.0
-5.86,452.62,892.8,175.0,-1102.5,-490.0
-5.61,452.62,892.43,-542.5,-630.0,-665.0
-5.61,452.62,892.31,-560.0,-297.5,-700.0
-5.73,452.62,892.55,-367.5,-665.0,-717.5
-5.98,452.62,893.16,-122.5,-752.5,-787.5
-6.34,452.5,893.77,332.5,-262.5,-472.5
-6.83,452.38,894.26,542.5,-122.5,-87.5
-7.08,452.5,894.38,875.0,-297.5,105.0
-7.08,452.62,894.26,700.0,-280.0,105.0
-6.95,452.62,894.02,420.0,105.0,35.0
-6.83,452.74,893.77,525.0,297.5,70.0
-6.83,452.86,893.28,210.0,175.0,-140.0
-6.83,452.86,892.92,-52.5,-332.5,-367.5
-6.95,452.62,892.8,0.0,-455.0,-332.5
-7.08,452.5,892.8,210.0,-245.0,-105.0
-7.08,452.38,892.8,0.0,-280.0,-210.0
-7.2,452.13,892.92,-17.5,-560.0,-420.0
-7.32,451.89,893.04,332.5,-525.0,-245.0
-7.44,451.77,893.04,175.0,-70.0,0.0
-7.44,451.89,892.8,-297.5,105.0,-105.0
-7.44,452.13,892.67,-385.0,-280.0,-332.5
-7.44,452.13,892.8,-70.0,-525.0,-367.5
-7.44,452.25,893.16,-385.0,-175.0,-350.0
-7.56,452.38,893.65,-577.5,210.0,-157.5
-7.44,452.25,894.38,-157.5,157.5,-35.0
-7.44,452.13,894.87,560.0,-175.0,140.0
-7.32,452.13,895.24,927.5,-280.0,52.5
-7.08,452.13,895.24,752.5,17.5,-192.5
-7.08,452.13,894.99,840.0,157.5,-315.0
-7.2,452.13,894.26,647.5,-227.5,-385.0
-7.44,452.25,893.53,-420.0,-647.5,-437.5
-7.69,452.13,893.41,-700.0,-717.5,-367.5
-7.81,451.89,893.89,-595.0,-437.5,-157.5
-7.81,451.89,894.75,-87.5,-245.0,-87.5
-7.81,451.77,895.48,595.0,-315.0,-87.5
-7.81,451.89,895.97,1155.0,-210.0,-87.5
-7.81,451.89,895.85,1155.0,-105.0,-210.0
-8.05,451.89,895.11,1032.5,-455.0,-227.5
-8.3,451.64,894.26,420.0,-647.5,-157.5
-8.42,451.52,893.77,-157.5,-210.0,-87.5
-8.54,451.4,893.41,-437.5,-122.5,-17.5
-8.54,451.4,893.16,-525.0,-735.0,-105.0
-8.42,451.4,893.53,-385.0,-787.5,-192.5
-8.17,451.4,894.26,-192.5,-87.5,-262.5
-8.05,451.52,894.75,297.5,175.0,-262.5
-8.17,451.52,894.99,507.5,-227.5,-227.5
-8.42,451.64,894.99,245.0,17.5,-245.0
-8.78,451.64,894.99,192.5,245.0,0.0
-9.03,451.52,894.75,507.5,-367.5,87.5
-9.03,451.64,894.5,542.5,-997.5,52.5
-8.78,451.52,894.5,192.5,-420.0,-70.0
-8.78,451.64,894.75,157.5,70.0,-140.0
-8.91,451.64,894.75,175.0,-122.5,-210.0
-9.03,451.52,894.99,210.0,-245.0,-105.0
-9.27,451.28,894.99,595.0,35.0,157.5
-9.52,451.28,894.75,612.5,-35.0,280.0
-9.52,451.4,894.38,52.5,-455.0,-17.5
-9.64,451.28,894.38,-192.5,-420.0,-70.0
-9.64,451.16,894.75,-35.0,-227.5,227.5
-9.64,451.28,894.99,122.5,-367.5,227.5
-9.52,451.16,895.36,455.0,-630.0,-17.5
-9.52,451.03,895.72,822.5,-245.0,280.0
-9.27,451.03,895.97,787.5,87.5,472.5
-8.91,451.28,895.72,665.0,-17.5,122.5
-8.66,451.64,895.24,315.0,-87.5,-280.0
-8.78,451.77,894.99,157.5,-175.0,-612.5
-9.03,451.64,894.75,350.0,-752.5,-490.0
-9.52,451.4,894.75,227.5,-560.0,-140.0
-10.0,451.28,894.75,-297.5,35.0,315.0
-10.25,451.16,895.24,-315.0,-35.0,577.5
-10.37,450.91,895.85,332.5,-140.0,717.5
-10.25,450.79,896.33,1172.5,210.0,945.0
-10.0,451.16,895.85,1487.5,350.0,910.0
-9.76,451.77,894.75,280.0,-385.0,175.0
-9.64,452.13,894.26,-315.0,-1050.0,-262.5
-9.52,452.01,894.5,140.0,-700.0,17.5
-9.52,451.89,894.87,245.0,192.5,350.0
-9.52,452.01,894.75,-17.5,280.0,280.0
-10.0,451.89,894.75,140.0,-455.0,140.0
-10.25,451.64,894.99,525.0,-595.0,455.0
-10.49,451.16,895.36,385.0,-35.0,752.5
-10.49,450.91,895.72,630.0,-210.0,665.0
-10.37,450.67,895.85,875.0,-490.0,612.5
-10.25,450.67,895.97,735.0,-297.5,770.0
-9.88,450.79,895.85,245.0,105.0,630.0
-9.52,450.91,895.72,245.0,-35.0,490.0
-9.03,451.03,895.72,752.5,-140.0,507.5
-8.54,451.16,895.48,770.0,-70.0,87.5
-8.54,451.64,894.87,437.5,-385.0,-192.5
-8.54,451.89,894.38,70.0,-665.0,-367.5
-8.66,451.89,894.26,35.0,-857.5,-315.0
-8.78,452.01,894.26,332.5,-787.5,-105.0
-8.78,452.13,894.5,87.5,-437.5,0.0
-8.78,452.13,894.99,52.5,0.0,-17.5
-9.03,452.01,895.48,350.0,227.5,35.0
-9.39,451.89,895.72,665.0,105.0,245.0
-9.76,451.89,895.6,1050.0,-35.0,437.5
-9.76,451.77,895.24,1050.0,-385.0,367.5
-9.76,451.89,894.5,507.5,-507.5,245.0
-9.52,452.01,894.26,-227.5,-192.5,17.5
-9.15,451.89,894.14,-367.5,-17.5,17.5
-9.03,451.89,894.26,-280.0,-210.0,0.0
-8.91,451.89,894.5,-87.5,-420.0,-105.0
-8.78,451.89,894.75,210.0,-507.5,-140.0
-8.66,452.01,894.87,210.0,-297.5,-157.5
-8.66,452.25,894.75,-52.5,-210.0,-210.0
-8.78,452.25,894.99,52.5,-577.5,-332.5
-8.91,452.13,895.48,507.5,-787.5,-315.0
-9.03,451.89,895.97,700.0,-385.0,-52.5
-9.15,451.64,896.21,787.5,-52.5,280.0
-9.27,451.64,896.09,1032.5,-227.5,35.0
-9.27,451.52,895.72,1155.0,-402.5,-52.5
-9.27,451.64,894.87,700.0,-175.0,-52.5
-9.39,451.77,894.02,-175.0,-350.0,-192.5
-9.39,451.77,893.65,-490.0,-822.5,-87.5
-9.27,451.89,893.77,-175.0,-385.0,140.0
-9.15,452.13,894.02,70.0,210.0,87.5
-9.27,452.38,894.02,595.0,-297.5,-192.5
-9.52,452.5,893.65,1085.0,-822.5,-280.0
-9.76,452.25,893.16,367.5,-455.0,-175.0
-10.0,451.89,892.8,-297.5,-175.0,0.0
-10.13,451.64,892.8,-647.5,-105.0,70.0
-10.13,451.4,893.41,-700.0,-52.5,0.0
-10.13,451.16,894.26,-87.5,-17.5,175.0
-10.13,451.16,894.99,87.5,350.0,245.0
-9.76,451.28,895.48,437.5,507.5,192.5
-9.64,451.52,895.6,927.5,315.0,210.0
-9.39,451.77,894.99,875.0,-472.5,35.0
-9.03,452.13,894.26,210.0,-927.5,-437.5
-8.66,452.38,894.26,-175.0,-735.0,-770.0
-8.42,452.13,894.75,52.5,-262.5,-612.5
-8.3,452.01,894.87,665.0,-192.5,-490.0
-8.54,452.38,894.5,752.5,-647.5,-612.5
-9.03,452.62,894.02,420.0,-1120.0,-857.5
-9.52,452.5,894.02,210.0,-980.0,-927.5
-10.0,452.13,894.02,280.0,-542.5,-525.0
-10.49,451.89,894.14,227.5,-332.5,-175.0
-10.98,451.64,894.02,140.0,-367.5,-17.5
-11.22,451.64,894.14,157.5,-262.5,70.0
-11.59,451.64,894.14,245.0,-262.5,245.0
-11.83,451.77,894.02,105.0,-402.5,315.0
-11.96,451.89,893.77,192.5,-822.5,350.0
-11.96,451.89,893.89,-17.5,-612.5,402.5
-11.71,451.89,894.26,122.5,52.5,525.0
-11.47,451.89,894.26,70.0,105.0,665.0
-11.1,451.89,894.26,-17.5,-262.5,455.0
-10.74,451.89,894.5,157.5,-262.5,297.5
-10.49,451.89,894.38,437.5,-420.0,262.5
-10.25,451.89,893.89,472.5,-910.0,70.0
-10.13,451.89,893.53,175.0,-1155.0,-227.5
-10.0,451.77,893.53,-87.5,-560.0,-245.0
-9.88,451.64,893.65,52.5,210.0,-87.5
-9.88,451.89,893.65,-472.5,717.5,-297.5
-10.0,451.89,893.77,-1225.0,910.0,-735.0
-10.0,451.77,894.26,-542.5,-297.5,140.0
-10.0,451.89,894.87,455.0,-472.5,35.0
-10.13,452.13,895.11,805.0,-787.5,-140.0
-10.25,452.01,895.24,1067.5,-1172.5,-17.5
-10.37,451.89,894.99,682.5,-507.5,0.0
-10.37,451.4,894.87,-280.0,0.0,-52.5
-10.37,450.79,894.87,157.5,-280.0,105.0
-10.37,450.42,894.75,367.5,-560.0,332.5
-10.25,450.55,894.63,210.0,-227.5,227.5
-10.0,450.91,894.63,-350.0,-350.0,-192.5
-9.76,451.03,894.99,105.0,-630.0,-280.0
-9.52,451.16,895.24,717.5,-402.5,-332.5
-9.52,451.4,895.11,927.5,-280.0,-332.5
-9.52,451.64,894.75,297.5,-472.5,-472.5
-9.76,451.64,894.63,105.0,-752.5,-630.0
-10.0,451.64,894.75,210.0,-612.5,-262.5
-10.13,451.52,894.99,17.5,-122.5,-35.0
-10.13,451.52,895.11,350.0,-280.0,-105.0
-10.13,451.64,895.24,612.5,-595.0,-297.5
-10.25,451.89,895.24,472.5,-577.5,-542.5
-10.49,451.89,895.24,420.0,-560.0,-367.5
-10.49,451.64,895.24,525.0,-367.5,-140.0
-10.37,451.52,895.36,490.0,-105.0,0.0
-10.25,451.4,895.24,595.0,-70.0,-140.0
-10.37,451.28,894.99,472.5,-350.0,-157.5
-10.49,451.16,894.75,157.5,-700.0,-157.5
-10.49,451.28,894.63,-17.5,-630.0,-157.5
-10.49,451.16,894.75,297.5,-682.5,-52.5
-10.49,451.16,894.87,665.0,-840.0,-175.0
-10.49,451.4,894.87,595.0,-1050.0,-332.5
-10.49,451.4,894.99,210.0,-560.0,-210.0
-10.37,451.4,895.24,-17.5,122.5,52.5
-10.37,451.52,895.24,175.0,35.0,52.5
-10.25,451.64,895.24,332.5,-472.5,-157.5
-10.25,451.52,895.24,577.5,-402.5,-175.0
-10.49,451.52,895.11,700.0,-385.0,-35.0
-10.61,451.64,894.63,717.5,-892.5,52.5
-10.61,451.52,894.26,315.0,-1015.0,-140.0
-10.61,451.4,894.02,157.5,-630.0,-157.5
-10.61,451.4,893.77,507.5,-507.5,70.0
-10.61,451.4,893.41,-332.5,-595.0,-87.5
-10.61,451.4,893.53,-980.0,-630.0,-122.5
-10.49,451.52,894.26,-682.5,-472.5,-52.5
-10.37,451.52,895.11,-17.5,-402.5,-35.0
-10.25,451.64,895.97,717.5,-577.5,17.5
-10.25,451.64,896.46,1505.0,-490.0,70.0
-10.25,451.52,896.33,1487.5,-245.0,87.5
-10.25,451.4,895.72,822.5,-210.0,-70.0
-10.25,451.28,895.24,455.0,-420.0,-105.0
-10.25,451.03,894.63,332.5,-385.0,210.0
-10.13,451.28,894.14,-17.5,-157.5,175.0
-10.0,451.52,893.77,-595.0,-437.5,-140.0
-9.76,451.52,894.26,-350.0,-787.5,-367.5
-9.52,451.4,894.87,175.0,-315.0,-122.5
-9.39,451.4,895.24,490.0,227.5,-70.0
-9.52,451.52,894.99,700.0,-472.5,-192.5
-9.64,451.64,894.5,560.0,-1260.0,-297.5
-9.64,451.77,894.26,0.0,-770.0,-315.0
-9.76,451.77,894.26,-350.0,-280.0,-157.5
-9.52,451.64,894.63,-472.5,-367.5,-140.0
-9.39,451.64,895.24,87.5,-402.5,-105.0
-9.27,451.52,895.85,577.5,35.0,0.0
-9.27,451.52,895.72,875.0,-17.5,-52.5
-9.39,451.64,895.24,910.0,-682.5,-140.0
-9.52,451.77,894.63,525.0,-752.5,-210.0
-9.52,451.77,894.26,-105.0,-280.0,-332.5
-9.52,451.77,894.02,-227.5,-245.0,-280.0
-9.76,451.64,894.02,-507.5,-210.0,-140.0
-9.76,451.52,894.5,-507.5,-52.5,-70.0
-10.0,451.28,894.99,122.5,-122.5,52.5
-10.13,451.16,895.36,700.0,-315.0,262.5
-10.25,451.16,895.36,647.5,-122.5,350.0
-10.13,451.4,894.87,262.5,-35.0,280.0
-10.0,451.52,894.5,-157.5,-315.0,-35.0
-9.76,451.64,894.5,-210.0,-490.0,-367.5
-9.64,451.52,894.75,17.5,-542.5,-437.5
-9.64,451.4,895.11,105.0,-490.0,-297.5
-9.64,451.28,895.36,332.5,-455.0,-87.5
-9.64,451.28,895.48,315.0,-402.5,-87.5
-9.52,451.4,895.72,122.5,-87.5,-105.0
-9.39,451.4,895.85,542.5,-175.0,-122.5
-9.27,451.52,895.72,717.5,-770.0,-420.0
-9.15,451.64,895.72,595.0,-962.5,-665.0
-9.15,451.52,895.72,385.0,-612.5,-490.0
-9.27,451.4,895.72,210.0,-280.0,-350.0
-9.27,451.28,895.97,332.5,-367.5,-420.0
-9.15,451.16,895.97,647.5,-700.0,-455.0
-9.15,451.16,895.97,630.0,-682.5,-560.0
-9.27,451.4,895.97,525.0,-525.0,-560.0
-9.39,451.4,896.09,402.5,-420.0,-525.0
-9.52,451.16,896.21,927.5,-367.5,-402.5
-9.76,451.16,895.6,1452.5,-367.5,-122.5
-10.0,451.28,894.5,700.0,-437.5,-262.5
-10.37,451.28,893.53,-70.0,-1067.5,-332.5
-10.49,451.28,893.04,-192.5,-1190.0,-210.0
-10.49,451.28,893.04,-367.5,-560.0,-140.0
-10.37,451.28,893.41,-402.5,-297.5,-175.0
-10.37,451.28,893.77,472.5,-735.0,-105.0
-10.37,451.28,894.26,910.0,-630.0,35.0
-10.25,451.28,894.5,735.0,-157.5,35.0
-10.13,451.16,894.38,822.5,-367.5,0.0
-10.0,451.16,894.02,1050.0,-682.5,-87.5
-9.64,451.28,893.53,525.0,-420.0,-227.5
-9.39,451.4,892.8,140.0,-542.5,-420.0
-9.27,451.4,892.55,210.0,-1120.0,-560.0
-9.03,451.4,892.55,227.5,-1277.5,-682.5
-8.91,451.4,892.67,402.5,-787.5,-752.5
-9.03,451.4,892.8,525.0,-385.0,-630.0
-9.39,451.4,892.43,875.0,-857.5,-350.0
-9.76,451.4,891.94,1015.0,-1347.5,-245.0
-10.0,451.77,891.33,192.5,-770.0,-297.5
-10.13,451.77,891.09,-367.5,-315.0,-210.0
-10.25,451.64,891.33,-402.5,-245.0,35.0
-10.37,451.64,891.7,17.5,-210.0,192.5
-10.37,451.64,892.06,507.5,-315.0,192.5
-10.37,451.77,891.94,822.5,-840.0,210.0
-10.13,452.01,891.7,752.5,-962.5,157.5
-9.76,452.25,891.45,157.5,-367.5,-35.0
-9.39,452.38,891.33,-385.0,0.0,-192.5
-9.27,452.38,891.33,-87.5,-420.0,-175.0
-9.27,452.13,891.45,87.5,-647.5,-105.0
-9.39,452.01,891.58,157.5,-560.0,-52.5
-9.39,451.89,891.58,350.0,-665.0,0.0
-9.39,451.89,891.58,227.5,-717.5,52.5
-9.39,451.89,891.45,-35.0,-525.0,17.5
-9.52,451.89,891.7,-105.0,-280.0,52.5
-9.52,451.89,891.94,35.0,-210.0,140.0
-9.52,451.89,892.31,-105.0,87.5,332.5
-9.52,451.89,892.8,-262.5,332.5,280.0
-9.52,451.64,893.28,472.5,17.5,297.5
-9.64,451.64,893.53,1155.0,-385.0,437.5
-9.39,451.77,893.16,1067.5,-525.0,402.5
-9.03,452.01,892.8,245.0,-17.5,70.0
-8.78,452.13,892.67,17.5,70.0,-52.5
-8.54,452.13,892.55,227.5,-227.5,-87.5
-8.54,452.38,892.55,560.0,-420.0,-140.0
-8.54,452.38,892.55,210.0,-350.0,-122.5
-8.54,452.38,892.55,210.0,-385.0,-17.5
-8.66,452.38,892.67,210.0,-402.5,105.0
-8.54,452.38,892.8,315.0,-262.5,0.0
-8.54,452.38,892.8,315.0,-402.5,-175.0
-8.42,452.25,892.92,105.0,-227.5,-227.5
-8.54,452.13,893.16,105.0,105.0,-52.5
-8.78,452.13,893.41,437.5,-192.5,192.5
-8.78,452.13,893.53,682.5,-350.0,70.0
-8.91,452.13,893.28,962.5,-140.0,210.0
-9.15,452.25,892.55,717.5,-52.5,227.5
-9.39,452.38,891.58,-332.5,-717.5,105.0
-9.52,452.38,891.33,-1137.5,-525.0,192.5
-9.52,452.25,891.94,-1312.5,297.5,455.0
-9.52,452.25,892.92,-700.0,332.5,525.0
-9.39,452.25,894.02,647.5,-385.0,402.5
-9.52,452.13,894.87,1575.0,-420.0,525.0
-9.39,452.13,895.11,1242.5,507.5,682.5
-9.27,452.01,894.87,682.5,840.0,630.0
-9.15,452.01,894.5,1067.5,-157.5,437.5
-9.03,452.01,894.02,822.5,-87.5,367.5
-9.03,452.13,893.41,17.5,367.5,315.0
-8.91,452.25,893.04,-157.5,-157.5,192.5
-8.66,452.13,893.04,-52.5,-735.0,122.5
-8.42,452.13,893.41,192.5,-367.5,157.5
-8.17,452.38,893.65,700.0,-105.0,35.0
-8.17,452.62,893.41,822.5,-700.0,-332.5
-8.17,452.74,893.28,472.5,-892.5,-420.0
-8.17,452.86,893.53,-70.0,-35.0,-420.0
-8.3,452.74,894.02,0.0,507.5,-245.0
-8.54,452.62,894.5,770.0,-17.5,-140.0
-8.78,452.62,894.5,1330.0,-507.5,0.0
-9.03,452.86,894.14,892.5,-175.0,-17.5
-9.27,452.86,893.77,227.5,227.5,0.0
-9.52,452.86,893.53,87.5,0.0,105.0
-9.76,452.5,893.65,437.5,-227.5,140.0
-10.0,452.13,893.53,857.5,-262.5,402.5
-10.25,452.01,893.04,717.5,-367.5,490.0
-10.25,452.01,892.55,35.0,-560.0,385.0
-10.25,452.01,892.55,-315.0,-420.0,402.5
-10.25,452.13,892.92,-455.0,122.5,717.5
-10.0,452.25,893.16,-437.5,437.5,787.5
-9.76,452.38,893.41,52.5,-157.5,420.0
-9.64,452.5,893.77,437.5,-577.5,192.5
-9.39,452.62,894.14,577.5,-87.5,280.0
-9.27,452.74,894.02,700.0,87.5,332.5
-9.27,453.11,893.53,700.0,-560.0,87.5
-9.39,453.23,893.16,420.0,-787.5,-140.0
-9.52,453.11,893.04,140.0,-350.0,52.5
-9.76,452.99,893.04,52.5,-35.0,262.5
-10.0,452.74,893.16,35.0,-87.5,385.0
-10.25,452.62,893.16,70.0,0.0,525.0
-10.49,452.62,893.16,-87.5,-192.5,542.5
-10.74,452.38,893.28,192.5,-542.5,647.5
-10.49,452.25,893.65,122.5,-437.5,787.5
-10.25,452.38,894.02,-17.5,245.0,857.5
-9.88,452.5,894.26,87.5,507.5,822.5
-9.52,452.62,894.26,367.5,140.0,525.0
-9.27,452.62,894.02,647.5,-245.0,297.5
-9.03,452.86,893.77,490.0,-542.5,105.0
-8.78,453.11,893.41,87.5,-1032.5,-227.5
-8.54,453.23,893.53,-332.5,-875.0,-367.5
-8.3,453.23,894.02,-262.5,-87.5,-227.5
-8.17,453.35,894.38,227.5,-175.0,-350.0
-8.3,453.47,894.75,927.5,-910.0,-525.0
-8.42,453.35,895.24,1225.0,-735.0,-350.0
-8.66,453.11,895.48,927.5,105.0,-122.5
-8.78,452.62,895.36,875.0,52.5,-210.0
-8.91,452.25,894.99,1400.0,-840.0,-227.5
-9.03,452.01,894.38,927.5,-630.0,-105.0
-9.03,452.01,893.65,-122.5,52.5,0.0
-9.27,452.13,893.28,-472.5,-175.0,-105.0
-9.27,452.13,893.28,-52.5,-875.0,0.0
-9.15,452.38,893.41,262.5,-420.0,-35.0
-8.91,452.5,893.53,175.0,192.5,-210.0
-8.91,452.74,893.53,402.5,-455.0,-385.0
-8.91,452.86,893.53,577.5,-927.5,-455.0
-9.03,453.11,893.65,245.0,-560.0,-280.0
-9.03,453.11,893.77,385.0,-367.5,-52.5
-8.91,453.35,893.89,665.0,-507.5,-210.0
-8.78,453.6,893.77,700.0,-682.5,-507.5
-8.91,453.47,893.53,560.0,-385.0,-525.0
-9.15,453.23,893.28,647.5,-280.0,-262.5
-9.52,452.99,892.8,577.5,-455.0,-122.5
-9.76,452.86,892.19,350.0,-962.5,-262.5
-10.0,452.62,891.82,-35.0,-892.5,-140.0
-10.0,452.5,891.82,-577.5,-192.5,52.5
-10.13,452.38,892.06,-752.5,-87.5,140.0
-10.13,452.25,892.55,-332.5,-297.5,157.5
-10.13,452.01,893.28,612.5,-385.0,455.0
-10.0,452.13,893.28,735.0,-105.0,560.0
-9.76,452.5,892.8,175.0,-35.0,315.0
-9.64,452.86,892.55,-140.0,-507.5,-52.5
-9.52,452.86,892.55,350.0,-805.0,-70.0
-9.52,452.86,892.55,612.5,-577.5,245.0
-9.27,452.99,892.31,-17.5,-350.0,175.0
-8.91,453.23,892.31,-507.5,-210.0,35.0
-8.66,453.23,892.55,-297.5,-52.5,-122.5
-8.42,453.35,892.8,175.0,-227.5,-227.5
-8.3,453.35,892.8,350.0,-630.0,-525.0
-8.3,453.47,892.43,297.5,-1015.0,-717.5
-8.54,453.35,892.43,-35.0,-927.5,-560.0
-8.78,452.99,892.67,-192.5,-455.0,-490.0
-9.03,452.5,892.92,385.0,-507.5,-105.0
-9.27,452.38,892.8,472.5,-455.0,35.0
-9.52,452.38,892.31,-402.5,-367.5,-17.5
-9.76,452.38,892.06,-560.0,-805.0,52.5
-9.76,452.5,892.31,-612.5,-962.5,192.5
-9.39,452.5,893.04,-420.0,-542.5,245.0
-9.03,452.62,893.89,0.0,-17.5,175.0
-8.66,452.62,894.75,455.0,122.5,17.5
-8.54,452.74,895.11,962.5,0.0,-122.5
-8.3,452.74,894.99,1172.5,-87.5,-175.0
-8.3,452.86,894.5,717.5,-157.5,-227.5
-8.3,452.86,894.14,-17.5,70.0,-315.0
-8.3,452.86,894.02,-192.5,227.5,-192.5
-8.17,452.86,893.89,52.5,-70.0,-297.5
-8.17,452.86,894.02,175.0,-402.5,-560.0
-8.3,452.86,894.26,560.0,-87.5,-385.0
-8.3,452.86,894.26,840.0,367.5,-280.0
-8.54,452.86,893.65,315.0,17.5,-385.0
-8.78,452.86,893.28,-192.5,-315.0,-595.0
-9.15,452.62,893.28,-420.0,-175.0,-367.5
-9.39,452.38,893.89,-140.0,70.0,52.5
-9.39,452.38,894.5,350.0,122.5,140.0
-9.39,452.5,895.24,752.5,-17.5,-52.5
-9.52,452.62,895.48,1242.5,-297.5,-105.0
-9.52,452.62,895.36,1347.5,-682.5,-140.0
-9.27,452.74,895.11,1312.5,-822.5,-245.0
-9.15,452.99,894.99,787.5,0.0,-350.0
-9.03,452.99,894.75,297.5,332.5,-490.0
-9.15,452.74,894.5,507.5,-157.5,-455.0
-9.27,452.62,894.26,490.0,-472.5,-297.5
-9.52,452.62,894.02,507.5,-420.0,-280.0
-9.88,452.62,893.77,787.5,-892.5,-245.0
-10.0,452.62,893.41,770.0,-1190.0,-175.0
-10.0,452.74,893.04,140.0,-647.5,-210.0
-10.13,452.74,893.04,-157.5,-245.0,-227.5
-10.25,452.74,893.04,192.5,-472.5,-262.5
-10.49,452.74,892.92,280.0,-577.5,-70.0
-10.74,452.86,892.8,-17.5,-350.0,70.0
-10.98,452.86,892.8,-227.5,-140.0,140.0
-11.1,452.86,893.04,87.5,-507.5,140.0
-11.1,452.86,893.16,612.5,-752.5,192.5
-10.98,452.86,892.92,350.0,-437.5,245.0
-10.98,452.99,892.8,70.0,-402.5,87.5
-10.98,453.11,892.55,332.5,-875.0,0.0
-10.86,453.11,892.43,-105.0,-385.0,245.0
-10.74,452.99,892.43,-525.0,280.0,210.0
-10.49,452.99,892.55,-542.5,-192.5,35.0
-10.37,452.86,893.04,262.5,-1015.0,-122.5
-10.13,452.74,893.53,770.0,-805.0,0.0
-10.0,452.86,893.53,210.0,-157.5,-35.0
-9.88,452.86,893.53,175.0,-612.5,-297.5
-9.76,452.62,893.53,542.5,-647.5,-192.5
-9.76,452.5,893.28,700.0,35.0,192.5
-9.88,452.62,892.06,17.5,-227.5,-17.5
-10.0,452.86,891.33,-892.5,-1330.0,-385.0
-9.76,452.86,891.58,-1032.5,-1260.0,-420.0
-9.64,452.86,892.43,-682.5,-402.5,-297.5
-9.39,452.86,893.41,-315.0,-227.5,-385.0
-9.27,452.86,894.26,472.5,-630.0,-507.5
-9.39,452.74,894.99,1102.5,-700.0,-350.0
-9.39,452.62,895.48,1032.5,-17.5,-297.5
-9.52,452.5,895.48,1172.5,227.5,-157.5
-9.52,452.38,894.99,1207.5,-262.5,-210.0
-9.39,452.38,894.5,962.5,-665.0,-315.0
-9.39,452.62,893.89,735.0,-560.0,-315.0
-9.27,452.74,893.16,227.5,-472.5,-525.0
-9.27,452.86,892.67,-385.0,-437.5,-665.0
-9.27,452.74,892.55,-560.0,-315.0,-490.0
-9.15,452.62,892.67,-52.5,-332.5,-507.5
-9.27,452.62,892.55,262.5,-700.0,-630.0
-9.52,452.62,892.31,17.5,-1067.5,-805.0
-9.88,452.62,892.55,-157.5,-910.0,-560.0
-10.0,452.5,892.8,-140.0,-385.0,-210.0
-9.88,452.62,893.04,0.0,-420.0,-227.5
-9.76,452.62,893.41,227.5,-892.5,-402.5
-9.52,452.74,893.77,490.0,-630.0,-472.5
-9.39,452.99,894.02,437.5,-297.5,-560.0
-9.52,453.23,894.02,385.0,-700.0,-735.0
-9.52,453.47,894.14,437.5,-1120.0,-857.5
-9.52,453.47,894.63,490.0,-787.5,-910.0
-9.52,453.11,895.24,927.5,-927.5,-665.0
-9.64,452.86,895.72,1610.0,-1522.5,-577.5
-9.76,452.62,895.97,1890.0,-1435.0,-577.5
-9.64,452.5,895.85,1662.5,-437.5,-525.0
-9.76,452.5,895.24,1400.0,227.5,-507.5
-10.25,452.62,894.02,892.5,35.0,-315.0
-10.74,452.86,892.55,612.5,-542.5,-192.5
-11.1,453.11,891.33,-122.5,-1242.5,-35.0
-11.22,453.23,890.84,-822.5,-927.5,35.0
-11.22,453.23,891.09,-875.0,-262.5,192.5
-11.35,453.35,891.58,-490.0,-140.0,227.5
-11.59,453.35,892.06,175.0,-472.5,210.0
-11.96,453.35,892.43,717.5,-822.5,455.0
-12.08,453.35,892.55,665.0,-472.5,787.5
-11.96,453.35,892.55,175.0,175.0,735.0
-11.59,453.23,892.55,-297.5,577.5,577.5
-11.35,453.11,892.31,-157.5,577.5,507.5
-11.22,452.86,892.19,-157.5,175.0,402.5
-11.1,452.86,891.94,-122.5,-122.5,437.5
-10.86,452.99,891.82,-157.5,-140.0,525.0
-10.49,453.11,891.58,-262.5,-332.5,472.5
-10.0,453.23,891.82,-350.0,-665.0,175.0
-9.39,453.23,892.55,-175.0,-385.0,70.0
-8.78,453.35,893.28,-35.0,17.5,-17.5
-8.3,453.47,893.89,332.5,-192.5,-332.5
-7.93,453.6,894.5,717.5,-490.0,-665.0
-7.81,453.35,894.99,1050.0,-612.5,-647.5
-7.81,453.11,895.11,1435.0,-437.5,-542.5
-7.69,453.11,894.75,1487.5,-297.5,-560.0
-7.81,453.11,893.77,787.5,-122.5,-892.5
-8.3,453.11,892.67,227.5,-752.5,-980.0
-8.78,452.99,892.06,105.0,-1575.0,-805.0
-9.15,452.99,892.06,210.0,-1382.5,-560.0
-9.39,453.11,892.06,-332.5,-665.0,-437.5
-9.76,453.23,892.31,-367.5,-367.5,-332.5
-10.0,453.35,892.92,192.5,-472.5,-245.0
-10.25,453.23,893.65,857.5,-490.0,-140.0
-10.49,453.11,894.02,1277.5,-280.0,-35.0
-10.61,453.11,894.02,1347.5,-262.5,105.0
-10.86,452.99,893.53,1312.5,-297.5,385.0
-10.98,452.99,892.92,595.0,-35.0,525.0
-10.86,453.11,892.31,122.5,52.5,437.5
-10.61,453.23,891.58,-437.5,-140.0,262.5
-10.49,453.23,891.45,-437.5,-472.5,105.0
-10.37,453.23,891.45,87.5,-770.0,140.0
-10.25,453.23,891.58,245.0,-682.5,105.0
-10.0,453.35,891.7,70.0,-472.5,87.5
-10.0,453.47,892.06,87.5,-297.5,70.0
-10.0,453.6,892.31,175.0,-315.0,122.5
-10.0,453.72,892.55,52.5,-105.0,157.5
-10.0,453.6,892.8,17.5,210.0,227.5
-10.13,453.47,892.8,420.0,35.0,350.0
-10.25,453.47,892.31,647.5,-560.0,420.0
-10.37,453.6,891.58,35.0,-787.5,245.0
-10.25,453.84,891.45,-507.5,-577.5,-87.5
-10.25,453.72,891.82,-157.5,-542.5,35.0
-10.37,453.6,892.31,-70.0,-262.5,350.0
-10.25,453.6,892.8,-297.5,507.5,402.5
-10.25,453.35,893.41,227.5,105.0,490.0
-10.37,453.35,893.77,980.0,-612.5,595.0
-10.13,453.35,893.77,1102.5,-682.5,542.5
-9.76,453.6,893.53,332.5,-175.0,437.5
-9.39,453.72,893.28,-192.5,87.5,175.0
-9.15,453.84,893.41,70.0,-105.0,35.0
-9.03,453.84,893.65,577.5,-385.0,-35.0
-8.78,453.84,893.53,1015.0,-577.5,17.5
-8.78,453.96,893.16,927.5,-735.0,-17.5
-8.78,454.08,892.8,245.0,-560.0,-280.0
-9.03,454.08,892.55,-332.5,-367.5,-262.5
-9.27,453.84,892.55,-245.0,-437.5,-17.5
-9.39,453.6,892.92,455.0,-735.0,175.0
-9.39,453.6,893.28,612.5,-665.0,175.0
-9.27,453.6,893.41,490.0,-490.0,52.5
-9.27,453.72,893.77,455.0,-420.0,-52.5
-9.15,453.72,894.02,595.0,-140.0,122.5
-9.15,453.72,894.26,682.5,227.5,315.0
-9.03,453.84,894.02,472.5,262.5,332.5
-9.03,453.84,893.89,472.5,-140.0,157.5
-9.03,453.84,893.77,752.5,-437.5,192.5
-8.91,453.84,893.65,910.0,-665.0,192.5
-8.54,453.84,893.53,507.5,-350.0,17.5
-8.3,454.08,893.41,210.0,105.0,-105.0
-8.17,454.08,893.16,122.5,0.0,-192.5
-8.17,454.33,892.92,175.0,-525.0,-262.5
-8.17,454.33,892.8,437.5,-927.5,-402.5
-8.17,454.21,892.92,630.0,-962.5,-490.0
-8.3,454.21,893.04,577.5,-385.0,-280.0
-8.54,454.33,892.92,-175.0,332.5,-262.5
-8.91,454.21,893.04,-595.0,-52.5,-175.0
-9.27,453.84,893.41,122.5,-735.0,140.0
-9.39,453.6,894.02,822.5,-560.0,420.0
-9.52,453.6,894.02,997.5,-157.5,752.5
-9.52,453.84,893.65,840.0,-280.0,717.5
-9.27,454.33,893.28,315.0,-437.5,262.5
-9.03,454.33,893.04,-70.0,-227.5,-52.5
-8.78,454.33,893.04,192.5,-210.0,0.0
-8.66,454.21,893.04,-52.5,-105.0,-140.0
-8.54,454.21,893.53,175.0,-70.0,-280.0
-8.78,454.21,893.77,455.0,-227.5,-87.5
-9.03,454.33,893.89,315.0,-245.0,17.5
-9.27,454.33,894.02,227.5,-70.0,175.0
-9.39,454.45,893.89,700.0,-17.5,367.5
-9.39,454.69,893.53,595.0,-297.5,52.5
-9.52,454.82,893.04,560.0,-665.0,-35.0
-9.64,454.57,892.8,-35.0,-350.0,210.0
-9.76,454.57,892.67,-210.0,140.0,297.5
-9.88,454.57,892.67,-245.0,122.5,595.0
-9.76,454.82,892.8,-420.0,-105.0,210.0
-9.52,454.94,893.28,-210.0,-472.5,-105.0
-9.39,454.94,894.14,525.0,-455.0,-157.5
-9.39,454.82,894.63,1067.5,122.5,175.0
-9.52,454.82,894.5,420.0,542.5,402.5
-9.39,454.69,894.26,105.0,385.0,192.5
-9.15,454.57,894.14,437.5,-192.5,157.5
-9.03,454.57,894.02,630.0,-490.0,-17.5
-9.03,454.57,893.77,315.0,-367.5,-157.5
-9.15,454.57,893.77,-52.5,-525.0,-175.0
-9.27,454.33,894.02,262.5,-770.0,-70.0
-9.27,454.21,894.26,647.5,-472.5,210.0
-9.15,454.33,894.26,175.0,175.0,227.5
-9.15,454.45,894.38,140.0,17.5,-35.0
-9.15,454.45,894.5,630.0,-717.5,-122.5
-9.15,454.45,894.38,717.5,-787.5,-35.0
-9.15,454.57,894.5,122.5,157.5,87.5
-9.27,454.57,894.38,-140.0,507.5,192.5
-9.39,454.57,894.5,262.5,-227.5,17.5
-9.52,454.57,894.5,875.0,-787.5,-17.5
-9.39,454.57,894.5,770.0,-472.5,35.0
-9.39,454.57,894.5,385.0,0.0,0.0
-9.27,454.57,894.5,280.0,-157.5,-105.0
-9.15,454.45,894.5,542.5,-367.5,-105.0
-8.91,454.57,894.5,752.5,-385.0,-245.0
-8.91,454.69,894.02,630.0,-665.0,-490.0
-9.15,454.69,893.77,140.0,-560.0,-490.0
-9.39,454.45,893.53,-70.0,105.0,-105.0
-9.76,454.21,893.28,-52.5,175.0,105.0
-9.88,454.33,892.92,-245.0,-437.5,-227.5
-10.0,454.33,893.04,-262.5,-735.0,-332.5
-10.25,454.08,893.41,-175.0,-332.5,175.0
-10.25,454.08,893.65,70.0,-227.5,472.5
-10.0,454.33,893.77,525.0,-770.0,332.5
-9.64,454.82,893.65,490.0,-822.5,-17.5
-9.27,455.18,893.53,-35.0,-17.5,-385.0
-9.27,455.18,893.53,-210.0,245.0,-490.0
-9.64,455.06,893.41,35.0,-437.5,-472.5
-10.0,454.57,893.53,-17.5,-927.5,-350.0
-10.25,454.21,894.02,-105.0,-437.5,35.0
-10.37,453.84,894.5,17.5,70.0,350.0
-10.25,453.84,894.75,402.5,-227.5,367.5
-10.0,454.08,894.87,630.0,-525.0,122.5
-9.76,454.33,894.99,332.5,-245.0,-192.5
-9.52,454.45,894.87,735.0,-87.5,-297.5
-9.52,454.45,894.38,665.0,-507.5,-262.5
-9.27,454.57,893.65,297.5,-665.0,-367.5
-9.39,454.82,893.16,-717.5,-280.0,-420.0
-9.52,454.82,893.16,-1120.0,-367.5,-507.5
-9.76,454.57,893.77,-140.0,-1120.0,-385.0
-9.88,454.57,894.5,717.5,-927.5,-105.0
-10.0,454.69,894.75,577.5,-245.0,-105.0
-10.13,454.69,894.75,262.5,52.5,-140.0
-10.37,454.57,894.75,472.5,-35.0,0.0
-10.74,454.45,894.26,402.5,-17.5,297.5
-10.74,454.33,893.53,35.0,-140.0,227.5
-10.86,454.33,893.04,-350.0,-682.5,70.0
-10.98,454.21,893.04,-280.0,-927.5,105.0
-10.74,453.96,893.53,-402.5,-420.0,245.0
-10.61,453.96,894.02,-455.0,17.5,315.0
-10.37,453.96,894.5,-105.0,-52.5,367.5
-10.13,454.08,894.99,297.5,-227.5,192.5
-9.88,454.21,895.36,507.5,-140.0,17.5
-9.64,454.33,895.48,595.0,-315.0,-87.5
-9.52,454.45,895.24,665.0,-630.0,-227.5
-9.39,454.45,894.87,297.5,-525.0,-245.0
-9.39,454.45,894.75,-52.5,-297.5,-437.5
-9.52,454.21,894.75,420.0,-717.5,-332.5
-9.52,454.08,894.75,595.0,-910.0,-175.0
-9.52,454.08,894.63,70.0,-525.0,-315.0
-9.64,454.08,894.75,35.0,-472.5,-437.5
-9.88,453.96,894.87,210.0,-490.0,-315.0
-10.0,453.84,894.99,560.0,-507.5,-87.5
-10.0,453.84,894.99,717.5,-630.0,-105.0
-10.0,453.96,894.99,262.5,-315.0,-227.5
-10.13,453.84,894.99,-52.5,245.0,-87.5
-10.25,453.84,895.11,157.5,157.5,122.5
-10.25,453.72,894.99,665.0,-472.5,-35.0
-10.25,453.47,894.75,1190.0,-1015.0,52.5
-10.25,453.6,894.02,647.5,-647.5,0.0
-10.25,453.84,893.28,-875.0,-105.0,-122.5
-10.25,453.96,893.41,-1452.5,-367.5,-87.5
-10.25,453.84,894.14,-507.5,-752.5,-70.0
-10.0,454.08,894.99,210.0,-525.0,105.0
-9.76,454.21,895.72,630.0,-35.0,52.5
-9.64,454.33,896.09,945.0,-140.0,-175.0
-9.64,454.33,896.09,840.0,-595.0,-472.5
-9.76,453.96,896.09,945.0,-577.5,-420.0
-9.76,453.6,895.97,980.0,-262.5,-70.0
-9.88,453.35,895.48,542.5,17.5,140.0
-9.88,453.47,894.99,-280.0,17.5,-87.5
-10.0,453.6,894.63,-210.0,-507.5,-245.0
-10.0,453.6,894.75,140.0,-735.0,-157.5
-9.76,453.6,894.99,245.0,-472.5,-210.0
-9.64,453.84,895.36,350.0,-52.5,-350.0
-9.64,453.84,895.48,507.5,-35.0,-367.5
-9.76,453.84,895.36,420.0,-402.5,-367.5
-10.0,453.96,895.24,367.5,-542.5,-367.5
-10.13,453.84,895.24,245.0,-507.5,-175.0
-10.13,453.96,895.36,472.5,-455.0,0.0
-10.0,454.08,895.48,525.0,-402.5,-140.0
-10.0,454.08,895.36,472.5,-210.0,-245.0
-10.0,454.08,895.24,542.5,-157.5,-140.0
-10.13,454.08,894.75,525.0,-507.5,-192.5
-10.13,454.08,894.38,437.5,-770.0,-385.0
-10.25,454.08,894.14,-122.5,-315.0,-402.5
-10.49,453.96,894.14,-315.0,35.0,-227.5
-10.61,453.72,894.38,-140.0,-140.0,-17.5
-10.74,453.6,894.63,0.0,-245.0,-70.0
-10.86,453.47,894.99,262.5,-280.0,-35.0
-10.86,453.35,895.36,490.0,-175.0,157.5
-10.86,453.47,895.36,665.0,17.5,350.0
-10.74,453.72,894.99,560.0,-227.5,210.0
-10.49,453.96,894.63,87.5,-420.0,-245.0
-10.49,453.96,894.5,17.5,-472.5,-350.0
-10.49,453.84,894.38,122.5,-350.0,-192.5
-10.37,453.84,894.5,52.5,-420.0,-210.0
-10.49,453.72,894.63,157.5,-577.5,-350.0
-10.49,453.6,894.75,367.5,-560.0,-175.0
-10.61,453.47,894.99,490.0,-420.0,-87.5
-10.74,453.35,894.99,262.5,-140.0,-52.5
-10.74,453.35,894.75,87.5,-227.5,-105.0
-10.74,453.35,894.63,-87.5,-420.0,-105.0
-10.74,453.23,894.63,227.5,-367.5,-52.5
-10.61,453.35,894.63,315.0,-420.0,-192.5
-10.61,453.6,894.5,420.0,-682.5,-332.5
-10.61,453.72,894.26,175.0,-542.5,-315.0
-10.74,453.72,894.26,17.5,-262.5,-245.0
-10.86,453.6,894.14,-70.0,-192.5,-192.5
-11.1,453.6,894.26,192.5,-385.0,35.0
-11.22,453.6,894.26,227.5,-577.5,-52.5
-11.22,453.6,894.5,210.0,-437.5,-70.0
-11.22,453.6,894.5,157.5,-245.0,87.5
-11.1,453.6,894.75,105.0,-175.0,35.0
-11.1,453.47,894.99,437.5,-315.0,-105.0
-10.98,453.35,894.87,1085.0,-175.0,227.5
-11.1,453.6,894.14,630.0,52.5,245.0
-10.98,453.84,893.28,-805.0,-367.5,-210.0
-11.1,453.84,893.28,-822.5,-857.5,-262.5
-10.98,453.72,894.02,-332.5,-507.5,-35.0
-10.86,453.6,894.75,-227.5,105.0,87.5
-10.74,453.6,895.36,402.5,-192.5,-122.5
-10.74,453.6,895.72,1225.0,-805.0,-157.5
-10.61,453.6,895.85,1277.5,-560.0,-122.5
-10.49,453.72,895.6,840.0,-175.0,-315.0
-10.61,453.6,895.24,857.5,-472.5,-332.5
-10.74,453.35,894.75,507.5,-472.5,-210.0
-10.74,453.35,894.5,-175.0,-17.5,-192.5
-10.98,453.23,894.38,-262.5,-52.5,-245.0
-11.1,453.11,894.5,52.5,-315.0,-122.5
-11.22,452.99,894.75,332.5,-262.5,35.0
-11.22,452.99,894.75,420.0,17.5,52.5
-11.47,452.86,894.5,857.5,-245.0,105.0
-11.71,453.11,893.77,542.5,-665.0,280.0
-11.83,453.35,893.28,-280.0,-420.0,87.5
-11.96,453.35,893.04,-490.0,-332.5,297.5
-11.96,453.47,893.04,-595.0,-332.5,542.5
-11.47,453.6,893.53,-612.5,-227.5,192.5
-10.98,453.84,894.26,-175.0,-402.5,-245.0
-10.86,453.84,895.24,420.0,-175.0,-332.5
-10.86,453.72,895.6,1085.0,87.5,-52.5
-10.98,453.72,895.36,1137.5,-17.5,105.0
-10.98,453.96,894.75,332.5,-262.5,-227.5
-11.22,453.72,894.38,-87.5,-525.0,-350.0
-11.47,453.35,894.26,105.0,-402.5,35.0
-11.71,453.23,894.26,70.0,-157.5,262.5
-11.71,453.23,894.26,-140.0,-385.0,175.0
-11.71,453.23,894.5,-157.5,-385.0,52.5
-11.71,453.23,894.99,35.0,-87.5,140.0
-11.71,453.11,895.6,822.5,-87.5,315.0
-11.71,453.35,895.48,1015.0,-297.5,367.5
-11.47,453.47,895.24,525.0,-402.5,105.0
-11.47,453.6,894.99,105.0,-367.5,52.5
-11.35,453.6,894.99,227.5,-262.5,52.5
-11.22,453.6,894.99,245.0,-175.0,52.5
-11.35,453.6,895.11,175.0,-297.5,-17.5
-11.47,453.6,895.24,420.0,-245.0,105.0
-11.47,453.6,895.24,595.0,-262.5,157.5
-11.47,453.47,895.36,822.5,-437.5,140.0
-11.59,453.35,895.24,892.5,-490.0,210.0
-11.59,453.47,894.99,245.0,-192.5,192.5
-11.59,453.6,894.87,35.0,-315.0,-17.5
-11.71,453.47,895.11,420.0,-542.5,122.5
-11.83,453.35,895.48,525.0,-175.0,315.0
-11.83,453.35,895.48,787.5,-350.0,367.5
-11.71,453.35,895.48,962.5,-770.0,437.5
-11.35,453.47,895.48,665.0,-350.0,385.0
-10.98,453.72,895.36,350.0,87.5,332.5
-10.74,453.96,895.24,175.0,35.0,0.0
-10.61,453.96,895.24,577.5,-385.0,-262.5
-10.86,453.84,895.11,1050.0,-560.0,-87.5
-11.1,453.96,894.5,665.0,-402.5,35.0
-11.47,453.96,893.77,-140.0,-875.0,70.0
-11.59,453.96,893.89,-297.5,-1190.0,105.0
-11.47,453.84,894.5,-70.0,-822.5,262.5
-11.22,453.96,895.48,227.5,-385.0,315.0
-11.1,454.08,896.21,1155.0,-105.0,280.0
-10.86,454.33,896.58,1242.5,140.0,157.5
-10.98,454.33,896.46,1277.5,70.0,87.5
-11.22,454.33,895.85,1312.5,-367.5,157.5
-11.35,454.33,895.24,630.0,-315.0,157.5
-11.47,454.08,894.87,140.0,17.5,245.0
-11.47,453.84,894.99,140.0,-70.0,507.5
-11.47,453.84,895.11,542.5,-437.5,612.5
-11.22,453.84,895.24,577.5,-630.0,385.0
-10.98,453.96,895.48,997.5,-560.0,280.0
-10.61,454.21,895.6,1102.5,70.0,210.0
-10.37,454.57,895.11,735.0,437.5,105.0
-10.37,455.06,894.38,210.0,-280.0,-192.5
-10.49,455.06,894.14,175.0,-840.0,-332.5
-10.61,455.06,894.26,210.0,-525.0,-35.0
-10.74,455.06,894.63,630.0,-227.5,157.5
-10.74,455.18,894.87,822.5,-420.0,122.5
-10.74,455.3,894.99,840.0,-472.5,0.0
-10.86,455.3,894.99,1137.5,-227.5,52.5
-11.1,455.3,894.5,1137.5,-227.5,245.0
-11.22,455.43,894.14,525.0,-227.5,0.0
-11.47,455.18,894.02,560.0,-455.0,140.0
-11.47,454.82,893.89,910.0,-472.5,647.5
-11.35,454.94,893.53,332.5,-157.5,787.5
-10.98,455.06,893.16,-577.5,-105.0,472.5
-10.49,455.3,893.53,-35.0,-822.5,52.5
-10.0,455.3,894.02,1172.5,-1260.0,87.5
-9.76,455.79,893.77,1225.0,-945.0,70.0
-9.52,456.16,893.41,507.5,-857.5,-297.5
-9.39,456.4,893.28,175.0,-665.0,-402.5
-9.52,456.52,893.28,210.0,-122.5,-175.0
-9.76,456.52,893.16,0.0,-35.0,-122.5
-10.13,456.4,893.16,-70.0,-280.0,-122.5
-10.49,456.04,893.41,350.0,-297.5,140.0
-10.98,455.79,893.53,717.5,-245.0,455.0
-11.22,455.67,893.53,665.0,-472.5,525.0
-11.22,455.67,893.53,752.5,-577.5,525.0
-10.86,455.67,893.28,700.0,-367.5,472.5
-10.49,455.79,893.16,350.0,140.0,385.0
-10.25,455.67,892.8,-52.5,262.5,332.5
-10.0,455.67,892.31,-70.0,-192.5,262.5
-9.52,455.55,891.94,-52.5,-437.5,-105.0
-9.27,455.55,891.82,-105.0,-385.0,-280.0
-9.15,455.55,891.58,-332.5,-332.5,-297.5
-9.03,455.67,891.58,-892.5,-245.0,-350.0
-9.03,456.04,891.82,-1242.5,-350.0,-385.0
-9.03,456.28,892.55,-437.5,-595.0,-385.0
-9.03,456.52,893.16,402.5,-980.0,-315.0
-9.03,456.77,893.53,822.5,-857.5,-350.0
-9.15,456.77,893.77,840.0,-350.0,-332.5
-9.27,456.77,893.53,332.5,-122.5,-367.5
-9.52,456.4,893.41,210.0,-227.5,-402.5
-10.0,455.91,893.28,402.5,-507.5,-157.5
-10.25,455.55,893.04,315.0,-192.5,227.5
-10.49,455.43,892.67,-297.5,122.5,315.0
-10.49,455.43,892.31,-472.5,-367.5,140.0
-10.49,455.43,892.31,-315.0,-682.5,35.0
-10.37,455.43,892.55,-87.5,-332.5,192.5
-10.13,455.55,892.55,-245.0,-70.0,0.0
-10.0,455.55,892.67,-420.0,-455.0,-175.0
-9.88,455.55,893.04,-87.5,-525.0,-157.5
-9.76,455.67,893.28,-105.0,-385.0,-52.5
-9.76,455.79,893.77,-87.5,-280.0,-87.5
-9.64,455.79,894.26,542.5,-577.5,17.5
-9.39,456.04,894.5,717.5,-507.5,-70.0
-9.03,456.28,894.5,315.0,-245.0,-385.0
-9.03,456.28,894.5,472.5,-297.5,-490.0
-9.27,456.04,894.26,945.0,-630.0,-315.0
-9.64,455.79,893.65,770.0,-787.5,-140.0
-10.0,455.55,892.8,-52.5,-402.5,0.0
-10.25,455.43,892.43,-857.5,-157.5,140.0
-10.37,455.3,892.55,-840.0,-315.0,122.5
-10.37,455.06,893.16,-175.0,-455.0,35.0
-10.25,455.06,893.65,385.0,-472.5,70.0
-10.0,455.18,893.89,455.0,-297.5,-105.0
-9.88,455.3,893.89,210.0,35.0,-87.5
-9.88,455.3,893.77,192.5,140.0,105.0
-9.88,455.3,893.41,122.5,-227.5,175.0
-9.76,455.55,893.04,-70.0,-647.5,-87.5
-9.52,455.67,893.04,192.5,-910.0,-227.5
-9.27,455.67,893.16,70.0,-647.5,-210.0
-8.91,455.79,893.41,-17.5,0.0,-297.5
-8.78,455.67,893.53,-105.0,0.0,-542.5
-8.91,455.43,893.65,315.0,-490.0,-507.5
-9.15,455.3,893.77,350.0,-332.5,-245.0
-9.27,454.94,893.53,315.0,70.0,-175.0
-9.52,454.69,893.16,455.0,-385.0,-140.0
-9.76,454.57,892.55,612.5,-997.5,-227.5
-9.76,454.69,891.82,-420.0,-892.5,-245.0
-9.76,454.82,891.82,-1190.0,-437.5,-280.0
-9.76,454.82,892.43,-980.0,-332.5,-227.5
-9.64,454.82,893.28,-175.0,-280.0,-175.0
-9.64,454.94,894.02,402.5,-105.0,-140.0
-9.64,455.06,894.26,770.0,-192.5,-157.5
-9.52,455.06,894.38,595.0,-175.0,-385.0
-9.64,454.82,894.5,665.0,35.0,-315.0
-9.76,454.45,894.26,735.0,52.5,-87.5
-9.76,454.33,893.77,140.0,-210.0,-122.5
-9.76,454.33,893.41,-105.0,-315.0,-315.0
-9.76,454.33,893.28,175.0,-612.5,-280.0
-9.76,454.33,893.28,140.0,-647.5,-332.5
-9.64,454.45,893.28,315.0,-560.0,-297.5
-9.52,454.57,893.16,210.0,-227.5,-420.0
-9.64,454.57,893.04,-157.5,-157.5,-595.0
-10.0,454.45,893.04,-210.0,-227.5,-420.0
-10.37,454.33,893.16,35.0,-332.5,-87.5
-10.49,454.21,893.28,157.5,-507.5,17.5
-10.61,454.08,893.28,542.5,-910.0,70.0
-10.49,454.08,893.28,507.5,-770.0,-52.5
-10.37,454.21,893.28,35.0,-245.0,-140.0
-10.25,454.21,893.28,-227.5,105.0,-227.5
-10.37,454.08,893.41,332.5,52.5,-140.0
-10.49,454.08,893.28,315.0,35.0,-105.0
-10.74,453.96,893.04,140.0,-122.5,-70.0
-10.86,453.84,892.8,245.0,-700.0,-175.0
-10.98,453.72,892.55,350.0,-980.0,-192.5
-11.1,453.6,892.67,-35.0,-577.5,-122.5
-11.22,453.47,892.8,-70.0,-402.5,-70.0
-11.22,453.35,893.04,70.0,-472.5,17.5
-11.22,453.35,893.53,665.0,-367.5,315.0
-11.22,453.35,893.53,367.5,70.0,227.5
-11.1,453.35,893.28,175.0,-140.0,70.0
-11.1,453.47,893.04,385.0,-752.5,122.5
-10.98,453.6,892.55,297.5,-595.0,87.5
-10.86,453.72,892.43,-525.0,-52.5,-87.5
-10.98,453.72,892.55,-210.0,-192.5,-140.0
-10.98,453.47,892.8,332.5,-717.5,35.0
-10.98,453.35,892.8,577.5,-840.0,17.5
-10.86,453.35,892.92,-35.0,-525.0,-17.5
-10.74,453.11,893.28,227.5,-507.5,-245.0
-10.74,452.99,893.53,805.0,-647.5,-35.0
-10.74,452.86,893.28,472.5,-105.0,245.0
-10.74,452.99,892.8,-175.0,175.0,35.0
-10.86,452.99,892.55,52.5,-560.0,-227.5
-11.1,452.74,892.31,507.5,-717.5,-35.0
-11.35,452.74,891.94,52.5,-105.0,227.5
-11.47,452.74,891.58,-875.0,-297.5,122.5
-11.47,452.74,892.06,-892.5,-805.0,-17.5
-11.35,452.62,893.16,105.0,-700.0,280.0
-11.1,452.62,893.89,682.5,-105.0,577.5
-10.61,452.86,894.02,927.5,-157.5,385.0
-10.25,453.11,893.77,892.5,-402.5,-35.0
-9.76,453.35,893.53,717.5,-262.5,-157.5
-9.52,453.23,893.28,122.5,227.5,-332.5
-9.52,453.11,892.92,192.5,0.0,-367.5
-9.39,452.99,892.43,175.0,-630.0,-560.0
-9.39,452.86,892.31,-175.0,-665.0,-630.0
-9.52,452.62,892.43,-70.0,-367.5,-525.0
-9.88,452.5,892.55,192.5,-350.0,-280.0
-10.13,452.5,892.55,35.0,-437.5,-297.5
-10.25,452.38,892.8,192.5,-315.0,-490.0
-10.49,452.38,893.16,630.0,-122.5,-332.5
-10.74,452.5,893.04,612.5,87.5,-17.5
-10.98,452.62,892.8,-35.0,315.0,-105.0
-11.22,452.62,892.55,-105.0,35.0,-105.0
-11.22,452.62,892.67,332.5,-402.5,35.0
-11.22,452.5,892.67,595.0,-245.0,175.0
-11.1,452.62,892.55,87.5,-87.5,52.5
-10.98,452.62,892.43,140.0,-280.0,-175.0
-10.86,452.74,892.31,175.0,-542.5,-175.0
-10.74,452.62,892.43,-52.5,-332.5,-297.5
-10.74,452.62,892.55,-70.0,-122.5,-210.0
-10.86,452.5,892.8,52.5,-157.5,-245.0
-10.98,452.38,893.04,542.5,-542.5,-157.5
-11.1,452.38,893.28,472.5,-472.5,-122.5
-11.22,452.38,893.28,385.0,-157.5,-87.5
-11.35,452.38,893.16,385.0,-332.5,17.5
-11.35,452.38,893.04,577.5,-560.0,-140.0
-11.35,452.38,893.04,297.5,-280.0,-52.5
-11.47,452.38,892.8,35.0,87.5,-17.5
-11.71,452.25,892.8,52.5,-262.5,-52.5
-11.83,452.25,892.8,350.0,-805.0,0.0
-11.96,452.25,892.8,280.0,-752.5,52.5
-11.96,452.25,892.92,140.0,-420.0,192.5
-11.71,452.25,893.16,122.5,-192.5,192.5
-11.59,452.25,893.28,245.0,-245.0,140.0
-11.47,452.13,893.41,525.0,-455.0,105.0
-11.35,452.25,893.28,560.0,-525.0,-35.0
-11.22,452.38,893.04,437.5,-647.5,-105.0
-11.22,452.38,892.92,-105.0,-402.5,-87.5
-11.22,452.38,893.04,-507.5,-52.5,-87.5
-11.1,452.38,893.28,-472.5,-52.5,-140.0
-11.22,452.38,893.65,175.0,-437.5,-105.0
-11.22,452.38,894.02,857.5,-822.5,-105.0
-11.35,452.25,894.14,927.5,-752.5,-175.0
-11.35,452.25,894.02,612.5,-385.0,52.5
-11.35,452.13,894.02,402.5,-122.5,-17.5
-11.47,452.13,893.77,87.5,17.5,0.0
-11.59,452.13,893.53,175.0,122.5,-17.5
-11.83,452.13,893.04,210.0,-420.0,-17.5
-11.96,452.13,892.67,-35.0,-1260.0,52.5
-11.96,452.13,892.8,-297.5,-1102.5,-17.5
-11.96,452.13,893.53,-280.0,-420.0,175.0
-11.71,452.13,894.26,140.0,-280.0,210.0
-11.35,452.38,894.99,910.0,-367.5,70.0
-11.22,452.38,895.48,997.5,-17.5,-17.5
-11.22,452.38,895.48,962.5,227.5,0.0
-11.22,452.25,895.24,1277.5,-87.5,87.5
-11.1,452.38,894.5,1277.5,-472.5,0.0
-10.98,452.5,893.53,437.5,-577.5,-262.5
-11.1,452.5,893.04,-157.5,-472.5,-367.5
-11.1,452.38,893.04,-157.5,-402.5,-332.5
-11.22,452.38,893.28,87.5,-577.5,-175.0
-11.35,452.13,893.77,332.5,-315.0,-35.0
-11.59,452.01,894.02,717.5,0.0,157.5
-11.83,452.01,893.89,892.5,-157.5,367.5
-11.96,452.13,893.28,542.5,-385.0,385.0
-11.96,452.38,892.8,87.5,-595.0,315.0
-11.96,452.62,892.67,-35.0,-682.5,297.5
-11.59,452.74,892.8,122.5,-682.5,227.5
-11.35,452.86,893.04,332.5,-665.0,52.5
-11.1,452.86,893.28,490.0,-805.0,-227.5
-10.98,452.86,893.65,927.5,-892.5,-175.0
-10.98,452.86,893.89,805.0,-420.0,70.0
-10.98,452.86,893.77,577.5,-17.5,122.5
-10.98,452.99,893.53,472.5,-245.0,-17.5
-10.98,453.11,893.53,297.5,-490.0,-175.0
-11.22,452.86,893.77,595.0,-542.5,-105.0
-11.35,452.74,894.02,892.5,-490.0,70.0
-11.47,452.62,894.02,1032.5,-665.0,192.5
-11.47,452.62,893.89,1190.0,-682.5,297.5
-11.47,452.62,893.65,717.5,-385.0,332.5
-11.35,452.62,893.28,367.5,-210.0,402.5
-11.22,452.62,893.16,490.0,-350.0,332.5
-10.98,452.86,893.04,402.5,-455.0,175.0
-10.86,453.11,892.8,472.5,-542.5,192.5
-10.74,453.35,892.67,437.5,-875.0,17.5
-10.74,453.35,892.67,630.0,-1102.5,-70.0
-10.74,453.47,893.04,332.5,-455.0,105.0
-10.61,453.6,893.28,402.5,122.5,367.5
-10.61,453.6,893.28,542.5,-192.5,280.0
-10.61,453.72,893.41,910.0,-682.5,227.5
-10.74,453.84,893.28,1190.0,-402.5,350.0
-10.86,453.84,893.04,717.5,35.0,437.5
-10.74,453.84,892.55,350.0,-227.5,437.5
-10.61,453.84,892.43,525.0,-577.5,280.0
-10.49,453.84,892.43,612.5,-647.5,262.5
-10.49,453.96,892.43,490.0,-210.0,332.5
-10.49,453.84,892.31,297.5,-35.0,455.0
-10.49,453.84,892.19,297.5,-192.5,647.5
-10.25,453.6,892.19,577.5,-70.0,647.5
-9.76,453.84,891.82,647.5,-175.0,472.5
-9.39,454.21,890.97,-52.5,-630.0,-35.0
-9.03,454.69,890.72,-910.0,-980.0,-595.0
-8.66,454.82,891.58,-402.5,-927.5,-577.5
-8.42,455.06,892.55,280.0,-227.5,-402.5
-8.3,455.43,893.28,577.5,122.5,-612.5
-8.54,455.55,893.77,1032.5,-385.0,-700.0
-9.03,455.3,894.14,1662.5,-525.0,-455.0
-9.52,454.94,894.14,1347.5,87.5,-17.5
-10.0,454.57,893.77,1120.0,52.5,175.0
-10.13,454.21,893.41,1085.0,-455.0,385.0
-10.13,454.08,893.16,647.5,-122.5,577.5
-10.0,454.21,892.92,227.5,560.0,490.0
