acc_x,acc_y,acc_z,gyro_x,gyro_y,gyro_z
27.94,445.06,899.38,-1050.0,5057.5,-455.0
26.23,444.57,901.34,2310.0,2835.0,157.5
24.77,444.32,901.95,3010.0,2975.0,175.0
23.18,444.32,901.58,2905.0,2800.0,-70.0
21.47,444.08,900.48,3360.0,1540.0,-455.0
19.89,443.96,899.26,2100.0,-52.5,-1067.5
18.3,443.59,898.9,-227.5,630.0,-1470.0
16.47,442.62,899.38,-1382.5,2467.5,-1207.5
14.27,441.64,899.87,-717.5,2205.0,-367.5
12.2,440.79,900.24,647.5,1067.5,595.0
10.86,440.3,900.24,1137.5,1907.5,1487.5
9.88,440.42,899.87,-612.5,3885.0,1855.0
9.03,440.66,899.75,-1260.0,3342.5,1242.5
7.81,440.79,899.51,-437.5,1767.5,665.0
6.47,440.91,899.14,-892.5,630.0,525.0
5.49,440.54,899.26,-1015.0,665.0,665.0
4.88,439.93,899.75,-350.0,1645.0,1172.5
4.64,439.32,900.36,-280.0,3360.0,1855.0
4.39,438.96,900.73,-490.0,4707.5,2100.0
4.03,438.96,900.48,-700.0,4445.0,1557.5
3.42,439.08,899.99,-787.5,2835.0,420.0
2.44,438.83,899.51,-315.0,1610.0,35.0
1.71,438.71,898.9,472.5,1365.0,542.5
0.85,438.71,897.92,-262.5,997.5,805.0
0.24,438.71,897.07,-1347.5,227.5,210.0
-0.73,438.47,896.7,-1312.5,-647.5,-280.0
-1.83,438.22,896.09,52.5,-2940.0,-157.5
-2.68,437.98,895.36,910.0,-5792.5,-210.0
-2.68,437.86,895.85,-980.0,-4130.0,-455.0
-2.56,437.49,897.92,-3045.0,2082.5,-297.5
-3.17,436.76,900.12,-2502.5,5600.0,630.0
-4.15,436.15,901.46,-1750.0,5197.5,1557.5
-4.64,435.66,902.31,-1662.5,3937.5,1592.5
-4.88,435.42,903.17,-962.5,2222.5,822.5
-5.25,435.05,903.9,1172.5,-227.5,192.5
-5.73,434.93,904.02,2782.5,-1365.0,70.0
-6.1,434.81,903.78,2572.5,-927.5,52.5
-6.59,434.81,903.29,1295.0,-52.5,227.5
-7.08,434.69,902.68,175.0,647.5,490.0
-7.56,434.56,902.31,-472.5,1942.5,752.5
-7.81,434.44,902.19,-1312.5,3325.0,945.0
-8.3,434.44,901.82,-1155.0,2870.0,647.5
-8.78,434.32,901.21,402.5,-262.5,105.0
-9.27,434.2,900.6,1137.5,-2047.5,-70.0
-9.52,434.32,900.48,542.5,-1382.5,87.5
-9.52,434.56,900.73,-490.0,245.0,-227.5
-9.76,434.44,901.09,-1207.5,1662.5,-280.0
-10.49,434.08,901.7,-1417.5,2345.0,332.5
-11.22,433.47,902.31,-1050.0,2625.0,805.0
-11.96,432.98,902.68,140.0,2222.5,1277.5
-12.32,432.61,902.92,735.0,962.5,1295.0
-12.2,432.49,903.41,822.5,332.5,752.5
-12.2,432.61,903.9,1260.0,1085.0,332.5
-12.44,432.61,903.78,1085.0,1855.0,717.5
-12.69,432.86,903.04,-227.5,1680.0,665.0
-12.69,432.98,903.04,-1540.0,1400.0,-17.5
-12.93,432.61,903.78,-1207.5,2222.5,17.5
-13.42,432.0,904.51,105.0,2537.5,717.5
-13.66,431.76,904.87,647.5,2450.0,770.0
-14.03,431.76,904.75,385.0,1435.0,-17.5
-14.4,431.64,904.87,840.0,122.5,-402.5
-14.88,431.39,905.0,1382.5,175.0,52.5
-15.13,431.27,905.36,682.5,1557.5,332.5
-15.62,431.27,905.48,560.0,2327.5,385.0
-15.98,431.27,905.24,735.0,2170.0,420.0
-16.59,431.39,904.51,927.5,1312.5,35.0
-17.08,431.39,903.65,997.5,630.0,-70.0
-17.69,431.64,902.8,332.5,1330.0,-17.5
-18.42,431.88,901.82,-70.0,1137.5,17.5
-19.03,432.12,900.6,-210.0,-350.0,-105.0
-19.64,432.37,899.87,-1400.0,-717.5,-227.5
-20.01,432.37,899.99,-2152.5,350.0,-122.5
-20.5,432.37,900.36,-1645.0,927.5,192.5
-20.98,432.25,900.6,-1452.5,262.5,-70.0
-21.72,431.76,900.97,-1260.0,-525.0,-560.0
-22.33,431.15,901.46,-560.0,-1172.5,-245.0
-22.81,430.42,902.19,-560.0,-385.0,315.0
-23.18,429.81,903.04,-822.5,927.5,717.5
-23.55,429.44,903.41,-420.0,630.0,840.0
-23.79,429.32,903.53,-315.0,-105.0,770.0
-23.91,429.44,903.78,-752.5,752.5,770.0
-24.03,429.56,903.78,-1172.5,1575.0,507.5
-24.4,429.44,903.65,-700.0,245.0,227.5
-24.64,429.2,903.78,-717.5,-245.0,385.0
-24.64,428.83,904.39,-577.5,770.0,962.5
-24.52,428.71,904.63,-857.5,2117.5,1015.0
-24.4,428.71,904.75,-1155.0,857.5,332.5
-24.4,428.59,905.12,-647.5,-647.5,-350.0
-24.52,428.34,905.73,-105.0,-752.5,-175.0
-24.77,428.1,906.46,-402.5,735.0,350.0
-24.89,427.73,907.31,-245.0,1942.5,367.5
-25.13,427.49,907.68,315.0,1697.5,122.5
-25.5,427.12,907.56,665.0,315.0,-175.0
-25.74,426.76,907.56,770.0,420.0,-157.5
-26.11,426.51,907.56,245.0,1750.0,52.5
-26.84,426.15,907.19,577.5,1085.0,262.5
-27.33,425.9,906.7,1225.0,-630.0,297.5
-27.33,425.78,906.46,1085.0,-770.0,227.5
-27.33,426.02,906.46,367.5,630.0,175.0
-27.33,426.02,906.22,52.5,1155.0,210.0
-27.57,426.15,905.97,70.0,717.5,70.0
-27.69,426.27,905.61,-87.5,350.0,-297.5
-27.82,426.02,905.73,-332.5,665.0,-280.0
-28.06,426.02,905.97,105.0,560.0,-262.5
-28.55,425.9,906.09,682.5,35.0,-315.0
-28.91,425.9,906.09,560.0,-280.0,-175.0
-29.04,425.9,906.34,70.0,350.0,-122.5
-29.04,425.78,907.07,122.5,1330.0,-210.0
-29.4,425.54,907.8,35.0,3010.0,140.0
-29.89,425.17,908.17,612.5,2660.0,420.0
-30.5,424.93,907.92,1785.0,647.5,105.0
-30.99,424.8,907.19,1960.0,-682.5,-175.0
-31.72,424.93,906.46,1732.5,-542.5,-87.5
-32.45,425.17,905.12,1260.0,-700.0,297.5
-33.18,425.54,903.78,245.0,-1312.5,227.5
-33.67,425.9,902.8,-140.0,-2117.5,-35.0
-34.04,426.02,902.19,-490.0,-1820.0,262.5
-34.16,425.66,902.31,-1732.5,875.0,1085.0
-34.16,425.41,902.68,-1767.5,1977.5,1417.5
-34.28,425.05,902.92,-945.0,1260.0,1400.0
-34.16,424.93,903.17,-1470.0,1225.0,1242.5
-33.92,424.8,903.78,-1452.5,507.5,770.0
-33.92,424.8,904.63,-227.5,-892.5,280.0
-33.67,424.93,905.48,665.0,-1732.5,210.0
-33.55,424.93,906.22,612.5,-805.0,157.5
-33.43,424.8,906.46,367.5,280.0,385.0
-33.18,424.8,906.34,122.5,682.5,437.5
-32.94,424.93,906.09,-192.5,140.0,-140.0
-32.82,424.8,905.97,35.0,-577.5,-595.0
-32.94,424.8,905.97,455.0,-910.0,-437.5
-32.94,424.93,905.85,577.5,-1085.0,-402.5
-32.94,425.05,905.48,472.5,-997.5,-472.5
-33.06,425.17,905.24,-105.0,-1312.5,-542.5
-32.94,425.05,905.48,-700.0,-577.5,-717.5
-33.18,424.68,906.34,-717.5,157.5,-647.5
-33.55,424.32,907.31,70.0,122.5,-402.5
-33.92,423.95,907.92,1172.5,122.5,-70.0
-34.4,423.71,907.68,1260.0,175.0,227.5
-34.53,423.71,907.07,647.5,-210.0,35.0
-34.65,423.58,906.58,262.5,-945.0,-175.0
-34.65,423.58,906.58,-227.5,-140.0,105.0
-34.77,423.46,906.95,-210.0,822.5,227.5
-35.01,423.58,906.95,455.0,52.5,140.0
-35.38,423.58,906.46,735.0,-1295.0,175.0
-35.14,423.71,905.97,472.5,-1225.0,157.5
-34.89,423.95,905.61,157.5,-665.0,52.5
-34.53,424.19,905.36,-297.5,-560.0,-157.5
-34.28,424.56,905.12,-787.5,-682.5,-612.5
-34.28,424.56,905.24,-892.5,-787.5,-857.5
-34.65,424.19,905.48,-840.0,-560.0,-297.5
-34.89,423.95,905.97,-542.5,-297.5,192.5
-34.89,423.71,906.34,-210.0,-490.0,-17.5
-34.89,423.34,906.46,350.0,-980.0,-35.0
-35.01,423.34,906.46,647.5,-1435.0,17.5
-35.01,423.46,906.34,262.5,-1312.5,-52.5
-35.14,423.58,906.09,-577.5,-717.5,-105.0
-35.26,423.83,906.09,-612.5,-840.0,0.0
-35.38,423.83,905.97,-735.0,-805.0,35.0
-35.38,423.58,906.34,-1102.5,-560.0,35.0
-35.38,423.22,906.95,-262.5,-927.5,192.5
-35.5,422.73,907.44,665.0,-1540.0,367.5
-35.38,422.36,907.56,315.0,-1032.5,577.5
-35.01,422.24,907.92,-665.0,-280.0,455.0
-34.89,421.88,908.66,-35.0,-665.0,297.5
-34.89,421.75,909.51,1050.0,-1120.0,507.5
-34.89,421.88,910.12,1470.0,-945.0,525.0
-34.65,421.88,910.24,997.5,-70.0,717.5
-34.4,421.88,910.36,612.5,560.0,857.5
-33.79,422.0,910.36,927.5,577.5,717.5
-33.31,422.36,910.12,770.0,560.0,385.0
-32.7,422.85,909.51,525.0,-70.0,-175.0
-32.45,423.1,909.02,560.0,-857.5,-700.0
-32.21,423.22,908.66,210.0,-612.5,-612.5
-31.96,423.1,908.78,52.5,175.0,-367.5
-31.96,422.97,908.9,52.5,157.5,-437.5
-31.72,422.85,909.39,735.0,-665.0,-752.5
-31.84,422.73,909.63,1015.0,-490.0,-717.5
-32.09,422.61,909.51,577.5,0.0,-507.5
-32.45,422.61,909.39,770.0,-525.0,-560.0
-33.18,422.24,909.14,1347.5,-1277.5,-315.0
-33.67,421.88,908.9,1417.5,-1242.5,472.5
-33.67,422.0,908.53,560.0,472.5,1120.0
-33.43,422.61,907.92,-805.0,1680.0,910.0
-33.31,422.97,907.44,-717.5,455.0,140.0
-33.31,423.1,907.07,-122.5,-1295.0,-227.5
-33.18,423.1,907.19,-87.5,-1225.0,-262.5
-33.06,422.97,907.68,-52.5,-752.5,-140.0
-32.94,422.85,908.17,577.5,-350.0,122.5
-32.94,422.97,908.41,822.5,-262.5,227.5
-32.82,423.1,908.41,420.0,-420.0,-35.0
-32.82,423.1,908.41,52.5,-70.0,-192.5
-32.82,422.97,908.41,315.0,35.0,245.0
-32.57,423.1,908.29,297.5,297.5,122.5
-32.33,423.1,908.17,-105.0,332.5,-385.0
-32.45,423.22,908.17,542.5,-665.0,-647.5
-32.57,423.1,907.92,840.0,-1417.5,-682.5
-32.57,422.97,908.17,227.5,-787.5,-577.5
-32.7,422.85,908.41,297.5,367.5,-192.5
-32.7,422.85,908.53,350.0,822.5,87.5
-32.94,422.85,908.41,-52.5,875.0,-140.0
-33.31,422.61,908.29,525.0,157.5,-140.0
-33.79,422.61,907.92,1102.5,-262.5,367.5
-33.92,422.85,907.31,280.0,-17.5,437.5
-33.92,423.1,906.7,-927.5,-455.0,175.0
-33.92,423.22,906.58,-805.0,-1592.5,332.5
-33.79,423.34,906.7,-262.5,-280.0,105.0
-33.55,423.34,906.7,-980.0,612.5,210.0
-33.43,423.22,906.7,-962.5,140.0,192.5
-33.18,422.85,906.95,262.5,-770.0,-245.0
-33.18,422.73,906.95,227.5,-245.0,-87.5
-33.18,422.61,906.95,-682.5,525.0,70.0
-33.18,422.61,907.07,-700.0,647.5,-192.5
-33.55,422.36,907.31,210.0,-542.5,-402.5
-33.92,422.12,907.68,980.0,-1487.5,-472.5
-34.16,422.0,908.17,1452.5,-1155.0,-385.0
-34.65,421.63,908.17,1592.5,-612.5,280.0
-35.01,421.63,907.92,1680.0,-805.0,525.0
-35.14,421.88,907.19,1347.5,-1260.0,402.5
-35.01,422.24,906.7,717.5,-1330.0,245.0
-34.89,422.36,906.46,192.5,-1120.0,122.5
-34.77,422.36,906.58,455.0,-875.0,192.5
-34.4,422.36,906.7,875.0,-717.5,560.0
-33.79,422.61,906.7,997.5,-840.0,227.5
-33.31,422.85,906.95,1260.0,-1470.0,-350.0
-32.94,423.1,906.95,945.0,-1277.5,-402.5
-32.82,423.1,907.07,752.5,-455.0,-367.5
-32.94,423.1,906.83,752.5,-227.5,-280.0
-33.18,423.1,906.34,297.5,-717.5,-227.5
-33.18,423.1,906.09,385.0,-1155.0,-297.5
-33.31,423.1,906.09,490.0,-1260.0,-367.5
-33.43,423.1,906.22,402.5,-1120.0,-350.0
-33.67,422.97,906.22,560.0,-770.0,-35.0
-33.67,422.97,906.34,350.0,-630.0,245.0
-33.55,423.1,906.58,105.0,-367.5,192.5
-33.43,423.1,906.83,490.0,-245.0,227.5
-33.31,423.1,906.95,542.5,-262.5,437.5
-32.94,423.22,906.95,612.5,-262.5,367.5
-32.7,423.34,906.95,612.5,-490.0,52.5
-32.33,423.46,907.07,1120.0,-1277.5,-175.0
-31.96,423.71,907.19,1207.5,-840.0,-175.0
-31.6,424.07,906.95,525.0,70.0,-315.0
-31.48,424.19,906.7,245.0,-385.0,-647.5
-31.48,424.19,906.46,1662.5,-3045.0,-1155.0
-31.23,424.19,906.46,2257.5,-3570.0,-1295.0
-30.99,424.44,906.46,1540.0,-1522.5,-997.5
-30.99,424.56,906.22,647.5,-122.5,-630.0
-31.11,424.56,905.97,507.5,-507.5,-542.5
-31.23,424.56,905.97,612.5,-1067.5,-560.0
-31.35,424.68,905.97,840.0,-1155.0,-367.5
-31.23,424.8,905.97,840.0,-140.0,-105.0
-31.23,425.05,905.73,560.0,805.0,17.5
-31.48,424.93,905.0,2100.0,-2520.0,962.5
-31.23,425.29,904.14,4252.5,-7315.0,-735.0
-30.74,425.78,904.02,2100.0,-5075.0,-1627.5
-30.38,425.78,904.51,210.0,-507.5,-420.0
-30.5,425.9,904.51,577.5,595.0,455.0
-30.13,426.27,904.26,420.0,-525.0,-52.5
-29.4,426.76,904.26,-262.5,-735.0,-507.5
-28.79,427.24,904.63,-105.0,-350.0,-1015.0
-28.43,427.12,904.87,1837.5,-2012.5,-1120.0
-28.06,427.49,904.39,3832.5,-5635.0,-1750.0
-27.69,427.85,904.02,3220.0,-5722.5,-2747.5
-27.45,427.61,904.02,2117.5,-2520.0,-1505.0
-27.33,427.61,903.78,542.5,-105.0,-192.5
-27.08,427.73,903.78,-350.0,297.5,-507.5
-27.08,427.98,903.78,-227.5,-175.0,-822.5
-27.21,427.98,904.02,245.0,-735.0,-595.0
-27.33,427.98,904.26,1522.5,-1452.5,-472.5
-27.33,428.1,904.14,2800.0,-2397.5,-332.5
-27.21,428.46,903.53,3762.5,-4217.5,-525.0
-26.72,428.95,902.8,4112.5,-5670.0,-682.5
-26.23,429.68,901.95,3500.0,-4515.0,-1155.0
-25.99,430.29,901.09,910.0,-1732.5,-1155.0
-25.62,430.66,900.73,-700.0,-70.0,-542.5
-25.5,430.66,900.85,-630.0,927.5,-35.0
-25.25,430.78,900.85,-297.5,647.5,595.0
-24.77,431.03,901.09,-70.0,-1225.0,-157.5
-24.16,431.15,901.7,1435.0,-2922.5,-962.5
-23.67,431.39,902.43,2205.0,-2887.5,-857.5
-23.18,431.88,902.8,1942.5,-2030.0,-962.5
-23.06,432.12,902.68,1277.5,-1330.0,-787.5
-22.69,432.37,902.43,717.5,-1312.5,-612.5
-22.45,432.49,902.31,-17.5,175.0,-490.0
-21.96,432.61,902.19,-210.0,332.5,-595.0
-21.84,432.73,902.07,560.0,-910.0,-787.5
-21.72,432.86,901.82,1627.5,-1977.5,-752.5
-21.35,432.98,901.46,1855.0,-2625.0,-420.0
-20.74,433.34,900.85,3150.0,-5320.0,-1207.5
-20.25,433.95,900.36,2642.5,-5652.5,-2117.5
-19.76,434.69,899.99,1172.5,-3605.0,-2537.5
-19.64,434.93,899.87,-490.0,-700.0,-1697.5
-19.52,435.05,900.12,-1085.0,787.5,-1032.5
-19.52,435.05,900.36,-1155.0,1277.5,-577.5
-19.52,435.05,900.48,-1540.0,1172.5,-665.0
-19.4,435.05,900.85,-682.5,-315.0,-822.5
-19.28,434.81,901.58,-472.5,910.0,-647.5
-19.4,434.93,901.58,350.0,-315.0,-280.0
-19.28,435.05,901.34,962.5,-857.5,17.5
-19.15,435.17,901.58,-1837.5,3517.5,717.5
-19.15,435.17,901.82,-2695.0,4620.0,945.0
-19.28,435.05,901.82,-1120.0,2782.5,612.5
-19.52,435.05,901.58,17.5,-332.5,262.5
-19.52,435.05,901.58,1627.5,-1557.5,70.0
-19.52,435.05,901.46,2030.0,-1417.5,385.0
-19.64,435.17,900.97,997.5,-1120.0,525.0
-19.52,435.42,900.73,70.0,-1417.5,17.5
-19.28,435.66,901.09,-1697.5,1750.0,315.0
-19.28,435.54,901.46,-1610.0,2292.5,665.0
-19.15,435.3,901.7,455.0,-17.5,595.0
-19.03,435.3,901.95,1435.0,-1820.0,245.0
-18.79,435.17,902.07,2415.0,-2625.0,-315.0
-18.79,435.3,901.95,2660.0,-2362.5,-367.5
-18.91,435.42,901.21,1575.0,-1540.0,0.0
-18.79,435.78,900.48,-1172.5,1347.5,402.5
-18.67,436.03,899.99,-2677.5,1470.0,385.0
-18.42,436.15,900.12,-1242.5,-962.5,-262.5
-18.3,436.15,900.97,1120.0,-2835.0,-752.5
-18.3,436.03,901.7,2467.5,-2660.0,-437.5
-18.3,435.91,901.95,2415.0,-2205.0,-175.0
-18.42,435.78,902.19,822.5,-752.5,-52.5
-18.54,435.54,902.43,-822.5,2485.0,630.0
-18.54,435.3,902.31,-1137.5,2852.5,1085.0
-18.42,435.54,901.7,-192.5,262.5,402.5
-18.3,435.78,901.46,1155.0,-1855.0,-455.0
-18.42,435.91,901.34,2082.5,-2345.0,-437.5
-18.54,436.03,900.73,2380.0,-2485.0,17.5
-18.54,436.27,900.12,1155.0,-2345.0,227.5
-18.3,436.39,899.99,-1732.5,997.5,542.5
-18.06,436.52,900.48,-3220.0,3955.0,1015.0
-18.18,436.52,900.97,-2187.5,3010.0,735.0
-18.3,436.52,901.34,245.0,-525.0,157.5
-18.42,436.52,901.46,1942.5,-2642.5,17.5
-18.42,436.52,901.58,2397.5,-2502.5,140.0
-18.3,436.76,901.34,1382.5,-1540.0,245.0
-18.18,436.76,901.34,-1137.5,805.0,472.5
-17.93,436.64,901.58,-3325.0,3762.5,1172.5
-17.81,436.52,902.07,-3797.5,5127.5,1417.5
-17.69,436.52,902.31,-1925.0,2170.0,577.5
-17.69,436.39,902.56,945.0,-1277.5,-315.0
-17.93,436.27,902.92,3255.0,-3307.5,-525.0
-18.18,436.27,902.68,3745.0,-3395.0,-122.5
-18.3,436.27,902.19,2520.0,-2747.5,280.0
-18.3,436.39,901.95,717.5,-1627.5,280.0
-18.06,436.27,902.31,-1172.5,1172.5,315.0
-17.93,436.27,902.92,-857.5,1907.5,647.5
-17.93,436.15,903.17,472.5,490.0,577.5
-17.69,436.15,903.29,700.0,262.5,157.5
-17.81,436.15,903.04,857.5,140.0,122.5
-17.93,436.15,902.8,1715.0,-1172.5,175.0
-18.06,436.27,902.31,1680.0,-2012.5,70.0
-18.06,436.39,901.95,262.5,-1172.5,122.5
-18.06,436.39,901.95,-1400.0,1680.0,525.0
-17.93,436.39,902.19,-2047.5,3412.5,1032.5
-17.81,436.39,902.19,-1522.5,3255.0,770.0
-17.81,436.27,901.95,-280.0,927.5,227.5
-17.81,436.27,901.58,910.0,-910.0,-157.5
-17.93,436.39,901.34,1522.5,-2047.5,-367.5
-18.06,436.39,900.97,1767.5,-2520.0,-420.0
-18.3,436.27,900.6,1802.5,-2835.0,-402.5
-18.3,436.27,900.85,122.5,-962.5,-122.5
-18.42,436.27,901.34,-1522.5,3045.0,630.0
-18.54,436.03,901.58,-1330.0,2205.0,857.5
-18.42,436.03,901.82,35.0,-210.0,122.5
-18.3,435.91,902.31,805.0,-332.5,-35.0
-18.54,435.78,902.43,1417.5,-385.0,350.0
-18.54,435.91,902.19,2380.0,-1645.0,157.5
-18.54,436.03,901.46,2310.0,-2625.0,-245.0
-18.54,436.03,900.97,525.0,-1015.0,-35.0
-18.54,436.03,900.73,-1715.0,2432.5,647.5
-18.67,436.03,900.73,-2502.5,3570.0,1120.0
-18.54,436.27,900.85,-1820.0,2170.0,682.5
-18.42,436.52,901.09,-647.5,-402.5,-105.0
-18.3,436.64,901.46,875.0,-1662.5,-542.5
-18.3,436.76,901.82,1907.5,-1942.5,-507.5
-18.54,436.76,901.46,2205.0,-2047.5,-262.5
-18.67,436.76,901.09,332.5,-805.0,-175.0
-18.91,436.39,900.85,-1750.0,735.0,525.0
-19.03,435.78,901.09,-1277.5,140.0,1190.0
-18.79,435.66,901.7,-402.5,280.0,787.5
-18.54,435.66,901.95,525.0,-227.5,245.0
-18.42,435.78,901.82,1225.0,-1260.0,-280.0
-18.54,435.78,901.82,700.0,-857.5,-297.5
-18.54,435.78,901.82,-402.5,927.5,122.5
-18.79,435.66,901.95,-560.0,1242.5,227.5
-18.79,435.54,901.95,297.5,70.0,-52.5
-18.91,435.54,901.82,735.0,-52.5,-52.5
-19.15,435.66,901.21,315.0,787.5,210.0
-19.28,435.78,900.6,87.5,595.0,262.5
-19.28,435.78,900.12,-105.0,472.5,0.0
-19.4,435.78,900.12,-822.5,35.0,-175.0
-19.28,435.66,900.36,-420.0,-17.5,-262.5
-19.28,435.54,900.73,-717.5,682.5,-297.5
-19.52,435.3,901.09,-857.5,1120.0,17.5
-19.76,435.05,901.34,-157.5,1242.5,315.0
-20.01,434.81,901.09,35.0,525.0,87.5
-20.13,434.81,900.85,-507.5,157.5,-140.0
-20.62,434.56,900.97,-1085.0,665.0,0.0
-20.98,434.32,901.46,-927.5,945.0,385.0
-21.11,434.2,901.82,-122.5,1277.5,577.5
-21.23,434.2,901.7,227.5,315.0,402.5
-21.11,434.32,901.34,35.0,105.0,17.5
-21.23,434.32,901.21,-227.5,17.5,-122.5
-21.47,434.2,900.97,-595.0,630.0,0.0
-21.84,434.08,900.6,-1137.5,1610.0,402.5
-22.08,434.08,900.36,-1225.0,437.5,262.5
-22.2,433.95,900.12,-630.0,-805.0,-175.0
-22.45,433.83,900.24,-700.0,-455.0,-52.5
-22.69,433.59,900.36,-752.5,-472.5,87.5
-22.69,433.34,900.36,-332.5,-1207.5,-140.0
-22.69,433.22,900.85,-840.0,-507.5,-122.5
-22.69,432.98,901.58,-1382.5,1435.0,385.0
-22.94,432.61,902.19,-1295.0,1785.0,542.5
-22.94,432.37,902.56,-455.0,227.5,87.5
-23.06,432.12,902.8,507.5,-735.0,-87.5
-23.18,432.0,902.68,682.5,-822.5,70.0
-23.18,431.88,902.56,472.5,-840.0,0.0
-23.18,431.88,902.31,245.0,-630.0,-192.5
-23.18,431.64,902.07,-245.0,-315.0,-227.5
-23.42,431.39,902.07,-717.5,245.0,-17.5
-23.67,431.27,901.95,-560.0,70.0,210.0
-23.79,431.39,901.82,-682.5,-612.5,17.5
-23.79,431.51,902.07,-805.0,-1365.0,-455.0
-23.91,431.39,903.17,52.5,-1470.0,-630.0
-24.03,431.03,904.02,595.0,-367.5,-35.0
-24.16,430.66,904.39,402.5,700.0,420.0
-24.16,430.42,904.39,175.0,-52.5,52.5
-24.52,430.17,904.26,525.0,-875.0,-140.0
-24.77,429.81,904.39,-52.5,525.0,542.5
-24.77,429.68,904.39,-332.5,1575.0,1015.0
-24.64,429.81,903.9,-210.0,630.0,525.0
-24.4,429.93,903.53,262.5,-1662.5,-402.5
-24.52,429.93,903.29,647.5,-2275.0,-542.5
-24.4,429.81,903.65,-332.5,-315.0,-192.5
-24.4,429.68,904.02,-507.5,1435.0,262.5
-24.4,429.56,903.78,157.5,157.5,280.0
-24.4,429.81,903.29,297.5,-1505.0,-262.5
-24.28,429.81,903.29,-472.5,-1207.5,-630.0
-24.4,429.68,903.9,-647.5,0.0,-297.5
-24.77,429.32,904.51,175.0,455.0,350.0
-24.89,429.2,904.63,805.0,-315.0,472.5
-24.77,429.32,904.51,472.5,-770.0,-192.5
-24.89,429.2,904.51,35.0,-630.0,-350.0
-25.13,428.95,904.75,52.5,87.5,140.0
-25.25,428.83,904.63,490.0,70.0,437.5
-25.25,428.83,904.02,245.0,-490.0,210.0
-25.25,428.83,903.65,-402.5,-892.5,-157.5
-25.25,428.71,903.9,-490.0,-1330.0,-210.0
-25.13,428.46,904.51,-227.5,-367.5,17.5
-25.13,428.34,904.87,-245.0,315.0,402.5
-25.01,428.22,905.36,-490.0,665.0,315.0
-25.01,427.98,905.97,332.5,-70.0,157.5
-25.13,427.98,906.09,1347.5,-752.5,437.5
-25.13,427.98,905.61,1190.0,-1137.5,210.0
-25.01,428.22,905.0,455.0,-1295.0,-105.0
-25.01,428.22,904.75,70.0,-892.5,-140.0
-25.01,428.22,904.75,17.5,-455.0,122.5
-24.89,428.22,904.75,-297.5,245.0,175.0
-24.77,428.22,904.75,-472.5,-315.0,-35.0
-24.64,428.22,904.87,-105.0,-472.5,-140.0
-24.52,427.98,905.12,52.5,-595.0,-35.0
-24.4,427.85,905.36,332.5,-735.0,-175.0
-24.4,427.85,905.73,280.0,-490.0,-70.0
-24.52,427.73,905.97,157.5,-350.0,52.5
-24.4,427.73,906.22,350.0,-332.5,-87.5
-24.64,427.49,906.46,385.0,-175.0,-87.5
-24.89,427.24,906.46,507.5,595.0,420.0
-25.01,427.0,906.09,875.0,350.0,682.5
-25.13,427.24,905.24,420.0,-350.0,402.5
-24.89,427.61,904.75,-472.5,-612.5,122.5
-24.64,427.73,904.87,-700.0,-507.5,-140.0
-24.52,427.73,905.48,-385.0,-332.5,-140.0
-24.4,427.49,906.09,192.5,-332.5,-105.0
-24.4,427.37,906.7,840.0,-52.5,52.5
-24.16,427.12,906.7,1172.5,-17.5,140.0
-24.03,427.0,906.22,700.0,-402.5,-70.0
-23.91,427.0,905.73,665.0,-805.0,-280.0
-23.91,427.0,905.36,525.0,-752.5,-280.0
-23.91,427.24,905.0,-52.5,-717.5,-367.5
-23.91,427.24,905.0,-665.0,-455.0,-472.5
-24.16,427.12,905.24,-367.5,-227.5,-280.0
-24.4,427.0,905.73,105.0,192.5,87.5
-24.4,427.0,905.73,525.0,-280.0,70.0
-24.52,427.12,905.61,980.0,-1347.5,-350.0
-24.64,427.24,905.24,612.5,-945.0,-315.0
-24.89,427.24,905.0,-437.5,17.5,175.0
-25.01,427.24,904.87,-315.0,-17.5,472.5
-24.89,427.37,904.87,52.5,-822.5,70.0
-24.77,427.24,905.12,-192.5,-455.0,-210.0
-24.77,427.24,905.24,-227.5,227.5,70.0
-24.77,427.0,905.48,350.0,-297.5,87.5
-24.64,427.0,905.61,892.5,-1102.5,-192.5
-24.77,427.0,905.73,612.5,-490.0,17.5
-24.77,427.0,905.61,157.5,472.5,245.0
-24.77,426.88,905.36,-17.5,227.5,157.5
-24.89,426.76,905.24,227.5,-560.0,35.0
-24.89,426.76,905.0,227.5,-560.0,192.5
-24.77,426.76,905.0,-17.5,-70.0,280.0
-24.64,426.76,905.0,0.0,-52.5,35.0
-24.64,426.63,905.12,402.5,-560.0,-87.5
-24.64,426.76,905.12,367.5,-245.0,105.0
-24.64,426.76,905.24,-140.0,735.0,210.0
-24.89,426.63,905.24,35.0,157.5,157.5
-24.89,426.51,905.24,857.5,-770.0,245.0
-24.89,426.51,905.12,682.5,-157.5,385.0
-24.89,426.63,904.75,17.5,420.0,297.5
-24.89,426.63,904.26,385.0,-525.0,87.5
-24.77,426.63,904.02,472.5,-770.0,0.0
-24.52,426.76,903.78,122.5,-472.5,-87.5
-24.4,426.76,903.53,-420.0,-140.0,-192.5
-24.28,426.76,903.65,-262.5,-332.5,-315.0
-24.4,426.63,903.9,52.5,-420.0,-227.5
-24.4,426.51,904.14,87.5,-297.5,-87.5
-24.4,426.51,904.51,-87.5,70.0,-157.5
-24.4,426.27,904.75,455.0,-367.5,-105.0
-24.52,426.27,904.87,840.0,-192.5,17.5
-24.64,426.39,904.51,437.5,-105.0,0.0
-24.77,426.39,904.26,-227.5,-70.0,-245.0
-24.89,426.27,904.26,490.0,-892.5,-157.5
-25.13,426.15,904.02,840.0,-350.0,157.5
-25.25,426.27,903.29,-367.5,227.5,367.5
-25.25,426.51,902.8,-840.0,-1260.0,-52.5
-25.01,426.76,903.29,-157.5,-1925.0,-490.0
-24.89,426.63,904.26,-822.5,-35.0,-227.5
-24.89,426.51,905.24,-420.0,1137.5,262.5
-24.89,426.39,905.48,700.0,-122.5,192.5
-24.89,426.27,905.73,840.0,-962.5,-262.5
-24.89,426.02,905.73,787.5,-140.0,-17.5
-24.89,425.9,905.73,700.0,332.5,297.5
-25.01,426.02,905.36,542.5,-122.5,70.0
-25.01,426.27,904.87,140.0,-525.0,-210.0
-25.01,426.27,904.63,-682.5,-227.5,-280.0
-25.01,426.27,904.75,-577.5,-297.5,-262.5
-25.13,426.02,905.12,122.5,-542.5,-52.5
-25.13,426.02,905.36,525.0,-560.0,87.5
-25.13,426.02,905.48,472.5,-367.5,0.0
-25.13,426.27,905.12,332.5,-420.0,-35.0
-25.13,426.51,904.75,-175.0,-490.0,-192.5
-25.38,426.51,904.51,-507.5,-472.5,-280.0
-25.5,426.27,904.63,-297.5,-367.5,52.5
-25.5,426.15,905.0,-157.5,-437.5,157.5
-25.38,426.02,905.48,-192.5,-210.0,-70.0
-25.5,425.9,905.85,-35.0,-17.5,35.0
-25.62,425.78,906.09,402.5,-175.0,227.5
-25.62,425.78,905.97,490.0,-437.5,245.0
-25.62,425.66,905.85,122.5,-210.0,192.5
-25.62,425.54,905.73,-262.5,175.0,192.5
-25.74,425.41,905.73,-192.5,-87.5,175.0
-25.74,425.29,905.73,52.5,-700.0,105.0
-25.74,425.17,905.97,-87.5,-402.5,105.0
-25.74,425.05,906.22,0.0,105.0,262.5
-25.62,425.17,906.46,455.0,-350.0,367.5
-25.38,425.29,906.34,420.0,-595.0,35.0
-25.25,425.29,906.46,-175.0,52.5,-140.0
-25.25,425.29,906.34,-105.0,157.5,87.5
-25.25,425.17,906.22,70.0,-367.5,-87.5
-25.13,425.05,906.22,350.0,-910.0,-297.5
-25.38,425.05,906.22,350.0,-472.5,-52.5
-25.5,424.93,906.22,87.5,-455.0,-70.0
-25.62,424.93,906.22,35.0,-385.0,-140.0
-25.62,424.8,906.34,122.5,-490.0,-17.5
-25.74,424.56,906.34,70.0,-227.5,210.0
-25.62,424.44,906.46,-157.5,-210.0,87.5
-25.62,424.32,906.95,122.5,-175.0,-35.0
-25.62,424.32,907.19,805.0,-227.5,140.0
-25.62,424.32,907.07,822.5,-332.5,297.5
-25.38,424.44,906.7,420.0,-315.0,105.0
-25.13,424.56,906.46,70.0,-595.0,-227.5
-25.01,424.68,906.22,-70.0,-857.5,-367.5
-25.01,424.56,906.34,-210.0,-227.5,-350.0
-25.01,424.44,906.46,70.0,315.0,-35.0
-25.13,424.32,906.46,560.0,-52.5,87.5
-25.25,424.44,905.97,175.0,-297.5,-175.0
-25.5,424.32,905.73,-787.5,-315.0,-227.5
-25.74,424.32,906.09,-490.0,-945.0,-87.5
-25.86,424.32,906.7,175.0,-910.0,70.0
-25.86,424.32,907.44,-420.0,105.0,140.0
-25.86,424.07,908.17,-280.0,280.0,87.5
-25.86,423.71,909.02,1225.0,-262.5,227.5
-25.86,423.58,909.27,1330.0,0.0,490.0
-25.74,423.58,909.14,682.5,227.5,315.0
-25.62,423.58,908.9,1207.5,-630.0,17.5
-25.38,423.83,908.53,1347.5,-577.5,35.0
-25.13,424.07,907.92,350.0,52.5,-87.5
-25.01,424.44,907.31,-227.5,-420.0,-402.5
-24.89,424.44,907.31,-140.0,-682.5,-560.0
-25.01,424.44,907.44,332.5,-507.5,-367.5
-25.01,424.32,907.44,630.0,-560.0,-402.5
-25.13,424.44,907.19,682.5,-612.5,-507.5
-25.5,424.44,906.95,350.0,-490.0,-315.0
-25.99,424.32,906.58,52.5,-560.0,-175.0
-26.35,424.19,906.46,-17.5,-455.0,87.5
-26.6,424.07,906.58,-140.0,-52.5,297.5
-26.6,423.95,906.7,-175.0,-227.5,332.5
-26.6,423.83,907.07,472.5,-822.5,157.5
-26.35,423.83,907.31,892.5,-717.5,227.5
-26.11,424.07,907.31,472.5,-280.0,350.0
-25.86,424.19,907.31,245.0,-192.5,280.0
-25.38,424.44,907.44,280.0,-227.5,-52.5
-25.13,424.56,907.44,262.5,0.0,-175.0
-25.13,424.56,907.68,140.0,-105.0,-350.0
-25.01,424.32,908.05,630.0,-700.0,-560.0
-25.13,424.32,908.41,1032.5,-595.0,-402.5
-25.13,424.32,908.41,700.0,52.5,-332.5
-25.38,424.32,908.41,612.5,-175.0,-385.0
-25.62,424.07,908.53,1190.0,-752.5,-192.5
-25.74,424.07,908.53,1260.0,-122.5,157.5
-25.74,424.07,908.29,787.5,227.5,280.0
-25.74,424.44,907.68,1137.5,-735.0,35.0
-25.62,424.8,907.19,1155.0,-1190.0,-280.0
-25.62,425.29,906.58,122.5,-297.5,-332.5
-25.74,425.41,906.46,-455.0,-35.0,-437.5
-26.11,425.17,906.83,140.0,-805.0,-402.5
-26.23,424.8,907.56,717.5,-490.0,52.5
-26.35,424.56,908.29,1242.5,192.5,560.0
-26.11,424.56,908.41,1400.0,245.0,595.0
-25.62,424.8,908.17,1190.0,-175.0,35.0
-25.5,425.05,907.92,1312.5,-262.5,-175.0
-25.38,425.29,907.44,997.5,280.0,105.0
-25.25,425.41,906.7,367.5,490.0,-140.0
-25.38,425.54,906.09,227.5,-227.5,-437.5
-25.62,425.41,905.73,472.5,-630.0,-245.0
-25.99,425.41,905.48,-52.5,17.5,210.0
-25.99,425.66,905.48,-507.5,-122.5,157.5
-25.86,426.02,905.73,-245.0,-945.0,-297.5
-25.86,426.15,906.7,385.0,-910.0,-507.5
-25.99,426.02,907.44,927.5,70.0,-122.5
-26.35,426.02,907.44,1365.0,192.5,280.0
-26.47,426.02,906.83,1225.0,-455.0,350.0
-26.35,426.02,906.34,140.0,-297.5,-105.0
-26.35,425.78,906.46,105.0,-52.5,-87.5
-26.6,425.66,906.58,927.5,-17.5,350.0
-26.47,425.9,906.34,682.5,0.0,280.0
-26.35,426.15,905.97,-262.5,-35.0,-332.5
-26.35,426.15,906.22,-157.5,105.0,-245.0
-26.35,426.02,906.58,840.0,52.5,192.5
-26.23,426.27,906.46,1032.5,175.0,35.0
-25.99,426.39,905.97,297.5,-140.0,-455.0
-26.11,426.51,905.85,17.5,-245.0,-612.5
-26.35,426.51,905.97,227.5,227.5,-245.0
-26.6,426.63,905.97,315.0,280.0,70.0
-26.72,426.76,905.73,297.5,-140.0,-210.0
-26.72,426.76,905.48,350.0,-420.0,-367.5
-26.84,426.76,905.24,227.5,-227.5,-227.5
-26.84,426.76,904.87,192.5,-560.0,-245.0
-26.96,426.76,904.63,105.0,-1032.5,-472.5
-27.08,426.63,904.63,-245.0,-437.5,-332.5
-27.21,426.51,904.63,-437.5,245.0,52.5
-27.21,426.51,904.51,-175.0,-245.0,-52.5
-27.21,426.51,904.63,-87.5,-665.0,-332.5
-27.21,426.51,904.87,-262.5,-490.0,-332.5
-27.21,426.27,905.12,210.0,-455.0,-280.0
-27.08,426.27,905.24,420.0,-595.0,-385.0
-27.33,426.27,905.24,210.0,-472.5,-507.5
-27.57,426.15,905.0,140.0,-140.0,-245.0
-27.82,426.02,904.63,-17.5,-192.5,52.5
-27.94,426.15,904.26,-175.0,-630.0,-210.0
-28.06,426.15,904.14,-560.0,-560.0,-507.5
-28.43,426.02,904.39,-332.5,-612.5,-315.0
-28.67,425.78,904.75,245.0,-577.5,175.0
-28.79,425.78,904.75,140.0,-560.0,472.5
-28.55,425.78,904.75,-402.5,-315.0,245.0
-28.3,426.02,905.0,-227.5,-542.5,-122.5
-28.18,426.02,905.12,175.0,-577.5,-122.5
-28.18,426.02,905.12,175.0,-245.0,105.0
-28.06,426.02,904.87,35.0,-455.0,70.0
-28.06,425.78,904.75,-192.5,-490.0,-87.5
-28.18,425.78,904.39,-332.5,-175.0,105.0
-28.3,426.02,904.14,-840.0,-385.0,280.0
-28.18,426.27,904.26,-1015.0,-910.0,-87.5
-28.18,426.27,904.75,-787.5,-997.5,-332.5
-28.3,426.02,905.73,-227.5,-350.0,-17.5
-28.55,425.66,905.97,367.5,-175.0,420.0
-28.67,425.29,905.85,420.0,-560.0,507.5
-28.55,425.05,905.85,-17.5,-682.5,245.0
-28.55,424.8,906.09,0.0,-420.0,350.0
-28.43,424.56,906.22,245.0,-210.0,647.5
-28.06,424.68,906.22,227.5,-87.5,630.0
-27.69,424.8,905.97,87.5,-525.0,245.0
-27.33,425.05,905.73,-297.5,-560.0,-140.0
-27.21,424.93,905.85,-420.0,-87.5,-70.0
-27.08,424.8,905.85,52.5,-192.5,105.0
-27.08,424.8,905.73,420.0,-857.5,-105.0
-26.96,425.05,905.48,70.0,-927.5,-262.5
-27.08,425.05,905.48,-700.0,-297.5,-245.0
-27.08,424.93,905.48,-560.0,-472.5,-175.0
-27.21,424.68,905.97,0.0,-787.5,17.5
-27.08,424.56,906.34,-87.5,-157.5,87.5
-27.08,424.56,906.58,52.5,17.5,0.0
-27.08,424.32,906.46,297.5,-560.0,-105.0
-27.21,424.32,906.46,-87.5,-560.0,-140.0
-27.33,424.19,906.46,-140.0,-245.0,17.5
-27.45,424.07,906.46,-210.0,70.0,175.0
-27.57,424.07,906.34,-385.0,-122.5,122.5
-27.57,423.95,906.46,-122.5,-770.0,17.5
-27.45,423.83,906.7,-35.0,-437.5,87.5
-27.33,423.71,906.95,-192.5,157.5,227.5
-27.33,423.58,907.07,175.0,-157.5,297.5
-27.33,423.58,907.07,402.5,-752.5,175.0
-26.96,423.46,907.07,87.5,-105.0,140.0
-26.84,423.46,907.07,-245.0,245.0,175.0
-26.96,423.46,906.95,-227.5,-140.0,17.5
-27.08,423.46,906.7,-157.5,-577.5,-17.5
-27.08,423.34,906.7,-17.5,-682.5,17.5
-27.08,423.22,906.7,122.5,-437.5,175.0
-27.08,423.1,906.46,-245.0,-595.0,35.0
-27.08,423.1,906.46,-700.0,-822.5,-192.5
-27.08,422.85,906.7,-367.5,-665.0,17.5
-27.08,422.61,906.7,-367.5,-735.0,385.0
-27.08,422.61,906.83,-140.0,-1837.5,0.0
-26.96,422.61,907.07,840.0,-2100.0,-87.5
-26.84,422.36,907.19,192.5,-420.0,297.5
-26.84,422.24,907.07,-227.5,420.0,437.5
-26.72,422.12,906.83,560.0,-665.0,297.5
-26.6,422.12,906.22,455.0,-1155.0,175.0
-26.47,422.36,905.73,-840.0,-665.0,0.0
-26.23,422.36,905.85,-1102.5,-1085.0,-245.0
-26.11,422.24,906.58,-490.0,-910.0,-87.5
-25.86,422.0,907.44,-17.5,-280.0,297.5
-25.62,421.88,907.8,175.0,-122.5,262.5
-25.38,421.75,907.92,192.5,-332.5,17.5
-25.38,421.51,907.92,0.0,-245.0,-87.5
-25.38,421.27,907.8,175.0,-647.5,-87.5
-25.38,421.14,907.8,280.0,-1032.5,0.0
-25.38,421.02,908.17,17.5,-472.5,52.5
-25.38,420.9,908.17,-210.0,280.0,297.5
-25.5,420.9,908.17,-140.0,-227.5,227.5
-25.38,420.9,908.17,70.0,-1207.5,-87.5
-25.38,420.66,908.53,157.5,-857.5,-17.5
-25.38,420.53,908.9,420.0,577.5,542.5
-25.38,420.78,908.66,402.5,665.0,822.5
-25.13,421.14,908.17,262.5,-787.5,157.5
-24.89,421.39,907.92,175.0,-1487.5,-367.5
-24.77,421.39,908.17,-332.5,-350.0,52.5
-24.52,421.27,908.66,-245.0,262.5,157.5
-24.4,421.14,909.14,612.5,-612.5,-35.0
-24.16,421.02,909.51,507.5,-315.0,-140.0
-24.16,420.78,909.63,332.5,227.5,-105.0
-24.4,420.66,909.39,1102.5,-717.5,17.5
-24.4,420.78,909.02,1155.0,-1295.0,-157.5
-24.52,420.78,908.66,350.0,-682.5,-157.5
-24.64,420.53,908.41,192.5,-420.0,315.0
-24.64,420.41,908.41,105.0,-315.0,437.5
-24.64,420.41,908.41,-630.0,402.5,332.5
-24.64,420.29,908.66,-682.5,280.0,385.0
-24.52,420.17,909.02,-70.0,-297.5,192.5
-24.4,420.17,909.51,892.5,-577.5,297.5
-24.16,420.17,909.63,1032.5,17.5,315.0
-23.91,420.41,909.14,560.0,-70.0,17.5
-23.79,420.66,908.66,542.5,-805.0,-297.5
-23.79,420.66,908.53,87.5,-507.5,-227.5
-23.79,420.53,908.41,-70.0,262.5,175.0
-23.91,420.41,908.17,140.0,-437.5,105.0
-23.91,420.29,908.41,717.5,-1382.5,-385.0
-23.79,420.29,908.66,752.5,-437.5,-140.0
-23.79,420.29,908.66,280.0,262.5,140.0
-23.79,420.29,908.66,140.0,210.0,-87.5
-23.79,420.17,908.66,437.5,-472.5,-140.0
-23.91,420.17,908.78,630.0,-560.0,-175.0
-23.91,420.17,908.66,490.0,-122.5,-35.0
-24.03,420.17,908.41,-87.5,70.0,140.0
-23.91,420.17,908.53,-157.5,-315.0,-280.0
-24.03,419.92,908.9,350.0,-157.5,-245.0
-24.4,419.68,909.14,717.5,770.0,472.5
-24.52,419.8,908.29,735.0,140.0,682.5
-24.4,420.29,907.56,-87.5,-1225.0,-35.0
-24.03,420.53,907.56,-332.5,-1610.0,-577.5
-23.91,420.66,908.17,-105.0,-577.5,-297.5
-23.91,420.66,908.66,227.5,-192.5,-17.5
-23.79,420.66,908.78,630.0,-507.5,-227.5
-23.79,420.53,908.78,507.5,-665.0,-350.0
-23.79,420.17,909.02,437.5,-262.5,-227.5
-23.91,419.8,909.39,1032.5,-402.5,35.0
-23.91,419.68,909.14,910.0,105.0,245.0
-23.67,419.92,908.9,-157.5,542.5,70.0
-23.42,420.05,908.9,-157.5,-297.5,-612.5
-23.42,419.92,909.02,857.5,-1225.0,-752.5
-23.42,419.8,909.14,1067.5,-472.5,-367.5
-23.42,419.92,908.66,595.0,822.5,-35.0
-23.55,420.05,907.92,332.5,52.5,-315.0
-23.67,420.29,907.19,105.0,-875.0,-647.5
-23.91,420.41,906.7,-612.5,-630.0,-490.0
-24.28,420.41,906.7,-1015.0,-35.0,-315.0
-24.64,420.41,907.19,-525.0,-210.0,-70.0
-24.89,420.41,907.8,297.5,-822.5,105.0
-24.89,420.41,908.29,612.5,-612.5,52.5
-25.01,420.53,908.41,140.0,122.5,35.0
-25.13,420.53,908.29,-52.5,-332.5,-17.5
-25.25,420.29,908.41,420.0,-700.0,17.5
-25.25,420.05,908.41,122.5,-52.5,315.0
-25.13,419.8,908.41,-420.0,175.0,175.0
-24.89,419.56,908.9,-35.0,-420.0,-87.5
-24.89,419.31,909.51,892.5,-525.0,87.5
-24.64,419.31,909.75,1050.0,157.5,227.5
-24.4,419.44,909.51,297.5,542.5,-17.5
-24.28,419.44,909.14,367.5,-367.5,-402.5
-24.28,419.44,909.02,700.0,-700.0,-350.0
-24.16,419.56,908.9,455.0,-122.5,-210.0
-24.28,419.68,908.53,35.0,192.5,-350.0
-24.52,419.68,907.92,122.5,-665.0,-490.0
-24.64,419.68,907.68,-87.5,-630.0,-437.5
-24.89,419.68,907.8,-665.0,105.0,-350.0
-25.01,419.44,908.17,-455.0,35.0,-210.0
-25.25,419.44,908.53,70.0,0.0,-35.0
-25.5,419.44,908.66,437.5,-262.5,-17.5
-25.86,419.44,908.17,455.0,-945.0,-122.5
-26.11,419.19,908.05,-52.5,-770.0,-175.0
-26.35,418.7,908.17,-297.5,122.5,262.5
-26.6,418.46,908.05,35.0,35.0,892.5
-26.6,418.58,907.8,87.5,-420.0,770.0
-26.23,419.19,907.68,-770.0,-402.5,367.5
-25.86,419.68,907.92,-875.0,-507.5,-35.0
-25.62,419.8,908.66,52.5,-945.0,-367.5
-25.62,419.56,909.14,647.5,-717.5,-210.0
-25.62,419.19,909.27,367.5,0.0,157.5
-25.62,418.7,909.27,87.5,175.0,262.5
-25.62,418.46,909.27,122.5,-350.0,122.5
-25.5,418.58,909.39,70.0,-542.5,0.0
-25.38,418.58,909.39,87.5,-542.5,-122.5
-25.13,418.58,909.51,-140.0,-297.5,-122.5
-24.89,418.46,909.88,-35.0,-192.5,-367.5
-24.89,418.46,910.36,612.5,-420.0,-455.0
-25.01,418.34,910.49,997.5,-472.5,-367.5
-25.25,418.22,910.49,840.0,-52.5,-280.0
-25.38,418.09,910.24,647.5,210.0,-87.5
-25.38,418.22,909.75,612.5,-472.5,-105.0
-25.38,418.34,909.39,717.5,-1032.5,-420.0
-25.38,418.46,909.27,192.5,-455.0,-455.0
-25.38,418.7,909.14,-17.5,-192.5,-402.5
-25.38,418.7,909.14,122.5,-770.0,-525.0
-25.38,418.58,909.27,70.0,-665.0,-630.0
-25.38,418.22,909.88,192.5,140.0,-332.5
-25.5,417.97,910.24,612.5,262.5,-70.0
-25.5,417.97,910.12,1207.5,-420.0,-192.5
-25.38,418.09,909.88,857.5,-472.5,-262.5
-25.13,418.22,909.63,315.0,-87.5,-612.5
-25.25,418.22,909.39,560.0,-175.0,-612.5
-25.5,418.22,909.02,105.0,-105.0,-455.0
-25.74,418.34,908.66,-402.5,0.0,-472.5
-26.11,418.34,908.66,-402.5,-717.5,-525.0
-26.35,418.09,909.02,87.5,-1085.0,-507.5
-26.6,417.97,909.39,455.0,-385.0,-87.5
-26.6,417.97,909.63,87.5,87.5,175.0
-26.72,418.22,909.63,157.5,-612.5,-157.5
-26.96,418.34,909.88,542.5,-1207.5,-332.5
-27.21,418.34,910.12,437.5,-262.5,175.0
-27.33,418.46,910.12,-157.5,612.5,595.0
-27.33,418.7,910.0,-87.5,-315.0,227.5
-27.08,418.7,910.12,735.0,-1767.5,-210.0
-26.84,418.95,910.36,840.0,-1032.5,35.0
-26.6,419.07,910.12,-52.5,332.5,227.5
-26.6,419.19,909.63,-245.0,-367.5,-157.5
-26.72,418.95,909.51,157.5,-892.5,-175.0
-26.72,418.95,909.39,17.5,-87.5,455.0
-26.6,419.19,908.9,-315.0,-682.5,350.0
-26.23,419.56,908.9,-542.5,-1907.5,-507.5
-26.11,419.68,909.39,-507.5,-1540.0,-700.0
-26.35,419.56,910.12,-490.0,-437.5,-35.0
-26.47,419.44,910.61,52.5,-752.5,227.5
-26.35,419.31,911.1,595.0,-1260.0,35.0
-26.35,419.19,911.46,665.0,-1155.0,87.5
-26.23,419.07,911.71,367.5,-280.0,280.0
-26.23,419.19,911.83,577.5,-507.5,350.0
-26.23,419.31,911.58,752.5,-1067.5,262.5
-26.23,419.44,911.1,350.0,-787.5,367.5
-26.35,419.56,910.85,-455.0,-245.0,490.0
-26.35,419.44,910.73,-420.0,-875.0,472.5
-26.23,419.31,911.1,280.0,-892.5,542.5
-25.86,419.19,911.46,402.5,-70.0,840.0
-25.38,419.31,911.34,665.0,-280.0,595.0
-25.01,419.56,910.97,612.5,-595.0,245.0
-24.4,419.68,910.61,17.5,-332.5,70.0
-24.16,419.68,910.36,-105.0,17.5,-17.5
-23.79,419.68,910.12,-402.5,-175.0,-175.0
-23.67,419.56,910.36,-420.0,-140.0,-315.0
-23.67,419.19,910.61,0.0,52.5,-52.5
-23.67,418.95,910.73,175.0,-70.0,105.0
-23.55,418.83,910.85,70.0,-87.5,-245.0
-23.67,418.58,911.1,577.5,-437.5,-192.5
-23.91,418.34,910.97,735.0,-192.5,192.5
-24.03,418.34,910.49,105.0,192.5,245.0
-24.16,418.34,910.0,-560.0,-122.5,-70.0
-24.28,418.22,910.0,-472.5,-542.5,-140.0
-24.52,418.09,910.24,17.5,-157.5,262.5
-24.52,417.97,910.36,-175.0,87.5,455.0
-24.16,417.97,910.73,-87.5,-542.5,52.5
-23.91,417.97,911.22,140.0,-507.5,-87.5
-23.79,417.97,911.83,350.0,385.0,17.5
-23.67,417.97,912.07,857.5,140.0,-52.5
-23.55,417.97,911.83,840.0,-210.0,-140.0
-23.42,417.85,911.58,210.0,0.0,-262.5
-23.55,417.85,911.46,245.0,-245.0,-315.0
-23.79,417.73,911.46,612.5,-472.5,-227.5
-24.03,417.61,911.22,420.0,52.5,-70.0
-24.28,417.48,910.73,332.5,105.0,52.5
-24.52,417.48,910.0,227.5,-455.0,-70.0
-24.77,417.61,909.39,-262.5,-1067.5,-192.5
-25.13,417.73,909.14,-717.5,-1207.5,-245.0
-25.38,417.61,909.51,-770.0,-280.0,140.0
-25.62,417.48,910.0,-297.5,-332.5,682.5
-25.5,417.36,910.49,17.5,-455.0,472.5
-25.38,417.12,910.85,315.0,-385.0,315.0
-25.38,416.75,911.22,525.0,280.0,472.5
-25.38,416.39,911.22,367.5,437.5,665.0
-25.38,416.02,911.1,-17.5,105.0,717.5
-25.01,415.78,911.22,157.5,-262.5,437.5
-24.64,415.78,911.22,700.0,-665.0,297.5
-24.16,415.9,911.1,315.0,-262.5,105.0
-23.79,416.02,911.1,-245.0,52.5,-122.5
-23.42,416.02,911.22,227.5,-210.0,-332.5
-22.94,416.14,911.34,892.5,-140.0,-385.0
-22.94,416.51,910.85,402.5,0.0,-630.0
-22.94,416.75,910.36,-350.0,-227.5,-787.5
-23.06,416.87,910.49,-245.0,-752.5,-1050.0
-23.42,416.87,910.85,577.5,-805.0,-822.5
-23.79,417.0,911.22,420.0,-262.5,-472.5
-24.28,417.12,911.22,-227.5,105.0,-525.0
-24.89,416.87,911.34,-122.5,-157.5,-192.5
-25.38,416.51,911.83,280.0,-315.0,210.0
-25.38,416.39,912.07,770.0,17.5,402.5
-25.62,416.39,911.95,875.0,315.0,525.0
-25.86,416.51,911.1,455.0,-175.0,507.5
-25.99,416.75,910.36,0.0,-735.0,350.0
-26.11,416.87,910.12,-490.0,-367.5,367.5
-26.11,416.75,910.12,-840.0,175.0,472.5
-26.11,416.51,910.36,-245.0,17.5,542.5
-25.99,416.39,910.49,-17.5,-490.0,560.0
-25.74,416.26,910.49,262.5,-857.5,280.0
-25.38,416.14,910.49,122.5,-717.5,70.0
-25.13,415.9,910.49,-227.5,-437.5,105.0
-24.77,415.53,910.73,-280.0,-52.5,122.5
-24.52,415.29,910.85,-175.0,-70.0,52.5
-24.28,415.04,911.1,-52.5,-472.5,-245.0
-24.16,414.8,911.34,105.0,-595.0,-525.0
-24.28,414.68,911.71,262.5,-490.0,-297.5
-24.4,414.8,911.95,770.0,-192.5,-70.0
-24.52,415.17,911.83,770.0,-367.5,-157.5
-24.64,415.78,911.34,-105.0,-577.5,-332.5
-24.64,416.02,911.58,-770.0,-490.0,-577.5
-24.89,415.78,912.19,315.0,-770.0,-507.5
-25.13,415.53,912.56,1400.0,-560.0,0.0
-25.38,415.29,912.19,945.0,17.5,262.5
-25.62,415.04,911.58,315.0,-140.0,35.0
-25.86,414.56,911.1,157.5,-525.0,210.0
-25.86,414.31,910.73,-122.5,-385.0,507.5
-25.86,414.31,910.61,-630.0,-17.5,402.5
-25.62,414.56,910.61,-455.0,-560.0,105.0
-25.38,414.8,911.1,-822.5,-472.5,-192.5
-25.5,414.8,911.71,-612.5,-350.0,-70.0
-25.5,414.68,912.32,297.5,-735.0,192.5
-25.13,414.68,912.93,787.5,-630.0,35.0
-24.89,414.56,913.17,752.5,122.5,-70.0
-24.89,414.56,912.8,962.5,-525.0,-17.5
-24.77,414.8,912.19,595.0,-700.0,-52.5
-24.52,415.04,911.83,-315.0,52.5,-122.5
-24.28,415.29,911.58,-525.0,122.5,-402.5
-24.28,415.29,911.71,-17.5,-997.5,-805.0
-24.28,415.17,911.83,122.5,-717.5,-735.0
-24.52,415.04,912.07,-35.0,105.0,-420.0
-24.89,414.8,912.07,227.5,-472.5,-367.5
-25.38,414.56,912.07,542.5,-910.0,-262.5
-25.62,414.31,912.19,35.0,-87.5,262.5
-25.86,414.07,912.07,-472.5,227.5,402.5
-25.86,413.95,912.44,-17.5,-822.5,105.0
-25.99,413.82,913.05,787.5,-805.0,52.5
-25.99,413.58,913.29,875.0,420.0,560.0
-25.86,413.7,912.8,402.5,280.0,507.5
-25.62,413.82,912.07,157.5,-1102.5,-140.0
-25.38,413.82,911.95,-577.5,-910.0,-437.5
-25.13,413.58,912.44,-822.5,-105.0,-157.5
-24.89,413.34,913.05,-52.5,-630.0,-122.5
-24.4,413.09,913.78,1067.5,-1277.5,-507.5
-23.91,412.97,914.27,1592.5,-420.0,-630.0
-23.79,413.09,914.15,1382.5,367.5,-507.5
-23.79,413.34,913.29,1400.0,35.0,-665.0
-24.03,413.58,911.83,542.5,-227.5,-840.0
-24.4,413.82,910.61,-227.5,-280.0,-805.0
-25.01,414.07,909.75,-700.0,70.0,-455.0
-25.62,414.31,909.14,-1190.0,-297.5,-140.0
-26.11,414.43,908.9,-1155.0,-1207.5,-52.5
-26.35,414.43,909.39,-997.5,-1435.0,-87.5
-26.72,414.31,910.12,-875.0,-1137.5,70.0
-27.08,414.07,910.97,-437.5,-577.5,472.5
-27.57,413.7,911.34,52.5,-612.5,910.0
-27.69,413.46,911.22,-595.0,-735.0,1137.5
-27.57,413.09,911.58,-1487.5,-630.0,822.5
-27.33,412.73,912.8,-630.0,-770.0,770.0
-27.21,412.36,913.78,577.5,-612.5,1242.5
-26.84,412.36,913.78,525.0,52.5,1365.0
-26.6,412.6,913.41,-472.5,-87.5,927.5
-26.47,412.73,913.29,-682.5,-682.5,665.0
-26.23,412.6,913.54,-52.5,-787.5,840.0
-25.86,412.6,913.78,332.5,-665.0,700.0
-25.62,412.85,914.02,420.0,-962.5,525.0
-25.25,412.85,914.15,367.5,-612.5,525.0
-24.89,412.85,914.15,157.5,-192.5,630.0
-24.52,412.97,914.02,-52.5,-525.0,647.5
-24.16,413.09,913.9,-192.5,-1032.5,350.0
-23.67,413.21,914.15,-507.5,-927.5,0.0
-23.3,412.97,914.51,17.5,-787.5,52.5
-23.06,412.85,914.88,857.5,-1050.0,227.5
-22.57,412.97,914.63,525.0,-1120.0,-87.5
-22.33,413.09,914.39,-297.5,-997.5,-420.0
-22.33,412.97,914.39,-437.5,-927.5,-315.0
-22.33,412.85,914.51,-105.0,-1172.5,-280.0
-22.2,412.73,914.88,245.0,-1435.0,-472.5
-22.33,412.48,915.24,157.5,-822.5,-385.0
-22.45,412.12,915.49,350.0,-665.0,52.5
-22.57,411.99,915.61,700.0,-805.0,140.0
-22.45,411.99,915.49,420.0,-770.0,-70.0
-22.57,411.87,915.24,-140.0,-122.5,122.5
-22.57,411.75,915.24,-507.5,87.5,437.5
-22.57,411.63,915.37,-262.5,-490.0,332.5
-22.69,411.51,915.73,647.5,-1032.5,210.0
-22.69,411.51,915.73,962.5,-735.0,315.0
-22.81,411.51,915.37,700.0,-280.0,752.5
-22.69,411.51,914.88,175.0,-122.5,875.0
-22.33,411.63,914.51,-245.0,-437.5,525.0
-21.96,411.63,914.27,-297.5,-507.5,402.5
-21.72,411.51,914.15,-612.5,-315.0,542.5
-21.11,411.63,914.39,-280.0,-1015.0,245.0
-20.37,411.63,914.76,315.0,-1540.0,-280.0
-20.01,411.75,915.24,175.0,-840.0,-455.0
-19.64,411.63,915.73,52.5,-227.5,-472.5
-19.76,411.26,916.22,647.5,-245.0,-332.5
-20.01,411.02,916.1,1207.5,-210.0,35.0
-20.01,411.14,915.37,577.5,-52.5,175.0
-20.01,411.51,914.51,-577.5,-280.0,-140.0
-20.01,411.63,914.51,-805.0,-1032.5,-630.0
-20.25,411.51,915.0,105.0,-1365.0,-455.0
-20.5,411.26,915.49,507.5,-560.0,140.0
-20.74,411.02,915.37,490.0,-192.5,437.5
-20.74,410.9,915.12,70.0,-455.0,227.5
-20.98,410.53,915.0,-367.5,-805.0,175.0
-21.11,410.16,915.49,-280.0,-682.5,455.0
-21.23,409.92,916.1,157.5,-262.5,787.5
-21.11,409.68,916.46,420.0,-315.0,910.0
-20.74,409.8,916.71,262.5,-525.0,647.5
-20.13,409.92,917.07,472.5,-262.5,577.5
-19.52,409.92,917.32,787.5,245.0,665.0
-18.91,410.16,916.95,1015.0,-140.0,402.5
-18.18,410.65,916.34,717.5,-490.0,-157.5
-17.69,411.14,915.61,157.5,-507.5,-577.5
-17.32,411.38,915.12,-157.5,-647.5,-927.5
-17.32,411.63,914.76,-140.0,-1050.0,-1207.5
-17.45,411.38,914.88,-280.0,-1137.5,-1102.5
-17.69,411.14,915.12,-210.0,-752.5,-910.0
-18.06,410.77,915.37,0.0,-612.5,-612.5
-18.54,410.53,915.49,-122.5,-402.5,-350.0
-18.79,410.41,915.73,-140.0,-752.5,-315.0
-19.15,410.16,916.34,17.5,-840.0,-420.0
-19.4,409.92,917.07,612.5,-175.0,52.5
-19.64,409.68,917.2,927.5,332.5,630.0
-19.64,409.68,916.95,490.0,-245.0,525.0
-19.52,409.68,916.83,-17.5,-87.5,70.0
-19.4,409.68,916.95,350.0,280.0,507.5
-19.15,409.68,916.71,735.0,-35.0,665.0
-18.79,409.92,916.1,507.5,-822.5,-70.0
-18.42,410.16,915.73,0.0,-980.0,-490.0
-18.3,410.29,915.73,-35.0,-402.5,-297.5
-18.18,410.29,915.73,105.0,-210.0,-262.5
-18.06,410.41,915.61,262.5,-892.5,-507.5
-18.06,410.29,915.73,-210.0,-752.5,-612.5
-18.3,410.04,916.34,-17.5,-175.0,-297.5
-18.54,409.8,916.83,455.0,105.0,52.5
-18.79,409.68,917.07,735.0,-297.5,17.5
-18.79,409.55,917.2,770.0,-245.0,0.0
-18.91,409.55,917.2,472.5,332.5,262.5
-19.03,409.43,917.2,542.5,297.5,315.0
-19.03,409.55,916.95,770.0,-140.0,245.0
-18.91,409.68,916.46,857.5,-385.0,35.0
-18.91,409.92,915.85,560.0,-297.5,-87.5
-18.91,409.92,915.24,122.5,-455.0,-52.5
-19.03,409.92,914.88,-87.5,-315.0,157.5
-18.91,410.16,914.63,-87.5,-105.0,210.0
-18.67,410.16,914.51,-315.0,-367.5,-157.5
-18.54,410.29,914.39,-350.0,-805.0,-472.5
-18.54,410.16,914.63,-227.5,-787.5,-367.5
-18.67,410.04,915.0,-52.5,-665.0,-192.5
-18.67,409.92,915.49,35.0,-630.0,-175.0
-18.54,409.68,915.98,-70.0,-140.0,-210.0
-18.54,409.55,916.71,332.5,70.0,-192.5
-18.67,409.43,917.07,840.0,-175.0,-122.5
-18.79,409.31,917.07,1225.0,-385.0,140.0
-18.54,409.31,916.71,875.0,280.0,245.0
-18.42,409.55,916.1,367.5,192.5,-70.0
-18.42,409.68,915.24,647.5,-857.5,-367.5
-18.42,409.92,914.63,245.0,-1015.0,-472.5
-18.42,410.29,914.15,-700.0,-245.0,-385.0
-18.42,410.41,914.02,-1207.5,-227.5,-437.5
-18.42,410.41,914.51,-665.0,-1400.0,-787.5
-18.54,410.16,915.73,17.5,-962.5,-682.5
-18.54,409.68,916.83,560.0,297.5,-17.5
-18.54,409.31,917.32,1470.0,280.0,122.5
-18.54,409.19,916.95,1557.5,-437.5,-227.5
-18.54,409.19,916.46,857.5,-630.0,-472.5
-18.67,409.19,915.98,385.0,-297.5,-332.5
-18.79,409.31,915.49,105.0,-175.0,-157.5
-18.79,409.43,915.24,-332.5,-105.0,-192.5
-18.79,409.55,915.49,-437.5,122.5,-350.0
-18.79,409.55,915.73,315.0,-542.5,-402.5
-18.79,409.55,915.85,1050.0,-980.0,-507.5
-18.79,409.55,915.85,612.5,-280.0,-472.5
-19.15,409.55,915.61,630.0,-175.0,-350.0
-19.4,409.68,915.0,280.0,-192.5,-157.5
-19.64,409.68,914.63,-315.0,-52.5,-87.5
-19.89,409.68,914.39,-560.0,-455.0,-105.0
-20.01,409.68,914.76,-245.0,-700.0,-87.5
-20.01,409.55,915.37,-35.0,-175.0,70.0
-20.01,409.43,915.85,210.0,157.5,105.0
-20.01,409.43,916.1,700.0,-402.5,35.0
-20.01,409.31,915.98,647.5,-595.0,70.0
-20.01,409.43,915.85,350.0,-367.5,52.5
-20.01,409.43,915.73,192.5,-122.5,17.5
-20.01,409.43,915.73,87.5,-560.0,-105.0
-20.01,409.43,915.98,262.5,-525.0,-87.5
-19.89,409.43,916.1,280.0,-472.5,52.5
-20.01,409.43,916.22,227.5,-472.5,0.0
-20.01,409.31,916.1,542.5,-560.0,-17.5
-20.13,409.31,915.98,507.5,-577.5,140.0
-20.01,409.31,915.73,350.0,-682.5,175.0
-19.89,409.43,915.49,-175.0,-70.0,87.5
-19.89,409.55,915.73,-385.0,17.5,87.5
-20.01,409.43,915.98,0.0,-420.0,17.5
-20.01,409.31,916.59,700.0,-770.0,105.0
-19.89,409.19,917.07,752.5,105.0,350.0
-19.76,409.19,917.2,700.0,227.5,402.5
-19.64,409.31,916.95,892.5,-420.0,35.0
-19.52,409.31,916.83,700.0,-385.0,-52.5
-19.4,409.31,916.59,507.5,280.0,297.5
-19.28,409.55,916.1,350.0,175.0,175.0
-19.4,409.68,915.61,280.0,-1015.0,-402.5
-19.76,409.68,915.49,210.0,-1085.0,-385.0
-20.37,409.43,915.49,-35.0,-280.0,245.0
-20.86,409.19,915.37,35.0,-105.0,787.5
-21.11,409.19,915.24,-122.5,-472.5,857.5
-20.98,409.19,915.49,-175.0,-490.0,805.0
-20.98,409.07,915.98,-192.5,367.5,910.0
-20.74,409.19,916.34,192.5,122.5,927.5
-20.5,409.31,916.46,822.5,-630.0,735.0
-20.25,409.43,916.46,455.0,-507.5,612.5
-19.64,409.55,916.46,367.5,-385.0,507.5
-19.03,409.68,916.59,227.5,-52.5,140.0
-18.54,409.8,916.46,455.0,-682.5,-122.5
-18.06,410.04,916.46,542.5,-770.0,-350.0
-17.69,410.16,916.46,630.0,-647.5,-560.0
-17.57,410.29,916.34,280.0,-297.5,-647.5
-17.81,410.04,916.22,105.0,-402.5,-630.0
-18.18,409.8,915.98,472.5,-700.0,-472.5
-18.79,409.68,915.61,630.0,-665.0,-70.0
-19.28,409.68,915.0,-437.5,-35.0,420.0
-19.28,409.92,914.88,-1207.5,-245.0,175.0
-19.28,410.04,915.37,-665.0,-892.5,-175.0
-19.28,409.92,916.46,262.5,-927.5,70.0
-19.15,409.8,917.2,770.0,-192.5,245.0
-18.91,409.55,917.32,910.0,105.0,402.5
-18.79,409.43,917.2,962.5,-52.5,315.0
-18.42,409.43,916.83,770.0,-122.5,105.0
-18.3,409.55,916.22,245.0,-35.0,0.0
-18.06,409.8,915.85,-157.5,-437.5,-297.5
-17.81,409.92,915.73,0.0,-857.5,-577.5
-17.57,409.92,915.85,-385.0,-437.5,-700.0
-17.69,409.8,916.34,-87.5,-262.5,-647.5
-17.93,409.55,916.71,455.0,-280.0,-227.5
-17.93,409.43,916.95,787.5,-490.0,-140.0
-18.06,409.43,916.95,980.0,-420.0,-420.0
-18.3,409.55,916.59,752.5,-595.0,-297.5
-18.54,409.68,916.22,245.0,-315.0,-157.5
-18.79,409.68,915.98,-210.0,52.5,-87.5
-18.91,409.68,915.85,350.0,-857.5,-87.5
-18.79,409.68,915.73,227.5,-507.5,-105.0
-18.79,409.8,915.85,-542.5,717.5,17.5
-18.91,409.68,915.85,-105.0,315.0,17.5
-19.03,409.68,915.85,490.0,-1155.0,-210.0
-19.03,409.43,916.22,350.0,-700.0,-192.5
-19.15,409.43,916.22,630.0,17.5,245.0
-19.15,409.68,915.98,262.5,17.5,122.5
-19.03,409.8,915.73,245.0,-910.0,-350.0
-19.03,409.68,915.61,367.5,-1102.5,-332.5
-19.03,409.68,915.73,175.0,-472.5,-192.5
-19.03,409.43,915.73,332.5,-560.0,-192.5
-19.15,409.43,915.73,472.5,-682.5,-122.5
-19.28,409.43,915.73,262.5,192.5,210.0
-19.52,409.43,915.49,70.0,262.5,315.0
-19.76,409.43,915.0,35.0,-700.0,245.0
-19.76,409.43,915.0,52.5,-962.5,105.0
-19.64,409.31,915.24,280.0,-560.0,350.0
-19.52,409.43,915.37,577.5,-420.0,472.5
-19.03,409.55,915.24,52.5,70.0,175.0
-18.79,409.68,915.24,-105.0,315.0,17.5
-18.79,409.68,915.24,157.5,-70.0,-17.5
-19.03,409.55,915.24,367.5,-402.5,-70.0
-19.28,409.43,915.0,210.0,-105.0,175.0
-19.28,409.31,914.76,210.0,-315.0,437.5
-19.15,409.31,914.51,175.0,-1015.0,87.5
-19.03,409.31,914.76,245.0,-1155.0,-105.0
-18.79,409.43,915.0,87.5,-122.5,52.5
-18.54,409.43,915.24,0.0,87.5,17.5
-18.42,409.43,915.37,630.0,-630.0,-245.0
-18.42,409.43,915.24,735.0,-385.0,-105.0
-18.79,409.43,915.0,-17.5,455.0,35.0
-19.03,409.19,914.51,122.5,-245.0,140.0
-19.28,409.07,914.39,-192.5,-542.5,332.5
-19.15,408.94,914.51,-87.5,-490.0,507.5
-18.79,409.19,914.76,-52.5,-472.5,385.0
-18.18,409.43,915.24,-105.0,-472.5,-227.5
-17.81,409.43,915.98,420.0,-420.0,-490.0
-17.57,409.43,916.46,857.5,-262.5,-525.0
-17.69,409.31,916.22,1102.5,-472.5,-560.0
-17.93,409.19,915.73,630.0,-297.5,-507.5
-18.3,408.94,915.24,472.5,70.0,-70.0
-18.67,409.07,914.63,70.0,-577.5,192.5
-18.54,409.43,914.27,-612.5,-1365.0,-297.5
-18.54,409.55,914.88,-1015.0,-332.5,-507.5
-18.54,409.43,915.98,-35.0,122.5,-105.0
-18.79,409.19,916.59,1137.5,-297.5,210.0
-18.79,409.19,916.59,1032.5,-840.0,-52.5
-18.79,409.07,916.46,577.5,-315.0,-157.5
-19.03,408.82,916.34,577.5,227.5,210.0
-19.03,408.82,916.1,472.5,17.5,297.5
-18.91,408.82,915.73,227.5,-402.5,157.5
-18.67,408.94,915.49,-122.5,-297.5,-35.0
-18.42,408.94,915.49,-227.5,-437.5,-262.5
-18.3,408.94,915.85,402.5,-752.5,-402.5
-18.18,409.07,916.1,700.0,-630.0,-315.0
-18.06,409.19,915.98,490.0,-315.0,-385.0
-18.06,409.07,915.98,367.5,-192.5,-507.5
-18.3,409.19,915.61,560.0,-175.0,-315.0
-18.79,409.31,915.0,87.5,-192.5,-157.5
-19.15,409.43,914.63,-455.0,-525.0,-210.0
-19.52,409.43,914.88,-245.0,-822.5,-140.0
-19.76,409.19,915.24,-87.5,-420.0,227.5
-19.89,408.94,915.61,210.0,-245.0,612.5
-19.52,408.94,915.85,402.5,-595.0,385.0
-19.15,409.07,916.22,140.0,-17.5,-17.5
-19.15,409.07,916.34,367.5,402.5,70.0
-19.4,409.07,915.98,962.5,-455.0,245.0
-19.52,409.07,915.24,682.5,-1155.0,122.5
-19.52,409.19,914.88,-262.5,-542.5,210.0
-19.52,409.07,914.76,-910.0,210.0,367.5
-19.52,409.19,914.76,-542.5,-682.5,210.0
-19.4,409.19,915.37,-17.5,-1452.5,-122.5
-19.15,409.07,916.22,-87.5,-437.5,-17.5
-18.91,408.94,916.95,210.0,385.0,280.0
-18.67,408.94,917.32,997.5,-420.0,105.0
-18.54,408.94,917.44,1260.0,-700.0,-210.0
-18.42,408.94,917.32,770.0,245.0,0.0
-18.42,408.94,916.71,402.5,507.5,122.5
-18.54,409.19,915.85,262.5,-490.0,-52.5
-18.79,409.19,915.24,-140.0,-700.0,17.5
-18.79,409.07,915.12,-700.0,-245.0,140.0
-18.54,409.07,915.24,-297.5,-647.5,-17.5
-18.3,409.19,915.49,297.5,-927.5,-140.0
-18.06,409.19,915.85,0.0,-595.0,-402.5
-17.93,409.07,916.1,280.0,-700.0,-490.0
-18.06,409.07,916.1,490.0,-805.0,-262.5
-18.18,409.07,915.98,122.5,-315.0,-227.5
-18.54,408.94,915.98,-70.0,87.5,-122.5
-18.91,408.82,915.61,-70.0,-105.0,87.5
-19.15,408.7,915.37,-385.0,-385.0,210.0
-19.28,408.58,915.49,-490.0,-560.0,262.5
-19.15,408.46,915.85,-70.0,-577.5,280.0
-19.03,408.46,916.22,560.0,-1032.5,175.0
-18.79,408.46,916.71,560.0,-805.0,70.0
-18.42,408.46,916.83,367.5,-560.0,17.5
-18.06,408.58,917.07,315.0,-175.0,-70.0
-17.81,408.46,917.2,280.0,-52.5,-297.5
-17.93,408.21,917.2,472.5,-52.5,-192.5
-17.81,408.21,917.07,822.5,-17.5,105.0
-17.81,408.33,916.59,647.5,-560.0,-87.5
-17.81,408.58,916.1,245.0,-1120.0,-437.5
-17.69,408.82,915.98,-17.5,-1347.5,-542.5
-17.45,408.94,916.22,-210.0,-840.0,-560.0
-17.2,408.94,916.71,-297.5,-315.0,-612.5
-17.08,408.7,917.07,315.0,-297.5,-700.0
-17.08,408.46,917.2,910.0,-682.5,-787.5
-17.57,408.21,917.07,665.0,-227.5,-595.0
-18.06,407.97,916.95,315.0,367.5,-105.0
-18.79,407.85,916.83,332.5,105.0,227.5
-19.03,407.85,916.46,140.0,-735.0,367.5
-19.03,407.97,916.46,-472.5,-385.0,227.5
-19.03,407.97,916.71,-315.0,-595.0,140.0
-18.79,407.97,917.56,402.5,-647.5,192.5
-18.42,407.97,918.17,1242.5,-35.0,385.0
-18.06,408.09,917.93,1015.0,717.5,227.5
-17.93,408.33,917.2,700.0,-175.0,-157.5
-17.93,408.58,916.34,420.0,-700.0,-437.5
-18.06,408.82,915.61,-367.5,-770.0,-385.0
-18.18,408.7,915.49,-910.0,-105.0,-52.5
-18.3,408.7,915.73,-665.0,-402.5,52.5
-18.3,408.58,916.46,17.5,-892.5,-70.0
-18.06,408.58,916.95,490.0,-822.5,-122.5
-18.06,408.58,917.56,525.0,-525.0,-210.0
-18.06,408.46,917.93,770.0,-472.5,-210.0
-18.18,408.46,918.17,822.5,0.0,-70.0
-18.18,408.33,918.05,630.0,70.0,87.5
-18.3,408.33,917.93,455.0,-35.0,-17.5
-18.3,408.21,917.81,472.5,-280.0,-140.0
-18.54,408.09,917.81,455.0,-17.5,0.0
-18.67,407.97,917.68,560.0,-17.5,332.5
-18.67,407.97,917.44,700.0,-542.5,297.5
-18.54,408.33,917.2,315.0,-437.5,87.5
-18.18,408.58,917.2,70.0,-262.5,-105.0
-18.06,408.7,917.32,262.5,-315.0,-227.5
-18.06,408.7,917.44,682.5,-472.5,-122.5
-17.81,408.7,917.44,350.0,122.5,0.0
-17.57,408.82,917.44,385.0,-157.5,-245.0
-17.57,408.82,917.32,840.0,-805.0,-525.0
-17.57,408.82,917.32,507.5,-332.5,-402.5
-17.81,408.7,917.07,52.5,402.5,-227.5
-18.18,408.58,916.83,315.0,-420.0,-175.0
-18.3,408.46,916.83,542.5,-1050.0,-262.5
-18.54,408.46,916.95,280.0,-157.5,0.0
-18.54,408.58,917.2,332.5,245.0,227.5
-18.54,408.7,917.2,542.5,-210.0,70.0
-18.54,408.7,917.2,280.0,-210.0,-157.5
-18.67,408.7,917.44,210.0,245.0,70.0
-18.79,408.58,917.68,420.0,262.5,420.0
-18.67,408.7,917.93,805.0,0.0,420.0
-18.06,408.82,918.05,927.5,315.0,140.0
-17.57,408.94,917.93,717.5,280.0,-437.5
-17.45,408.94,917.44,857.5,-490.0,-840.0
-17.57,408.82,916.95,875.0,-577.5,-647.5
-17.57,408.94,916.59,157.5,35.0,-297.5
-17.57,409.07,916.34,-350.0,-402.5,-612.5
-17.57,409.31,916.71,87.5,-1190.0,-927.5
-17.69,409.43,917.44,647.5,-717.5,-805.0
-17.81,409.43,917.93,875.0,70.0,-542.5
-18.06,409.43,917.68,945.0,35.0,-490.0
-18.3,409.43,917.32,875.0,-420.0,-647.5
-18.54,409.31,917.07,717.5,-385.0,-560.0
-18.91,408.94,916.95,577.5,-35.0,-245.0
-19.03,408.94,916.71,612.5,70.0,-87.5
-19.15,408.94,916.59,402.5,227.5,-105.0
-19.03,409.07,916.46,157.5,70.0,-385.0
-19.03,409.07,916.59,297.5,87.5,-630.0
-19.28,408.94,916.59,857.5,87.5,-437.5
-19.64,408.94,916.1,1155.0,227.5,-70.0
-19.89,408.94,915.24,682.5,-35.0,-52.5
-20.01,409.19,914.27,-105.0,-192.5,-227.5
-20.13,409.43,913.54,-577.5,-367.5,-245.0
-20.25,409.8,913.29,-665.0,-752.5,-455.0
-20.37,409.92,913.66,-542.5,-1102.5,-735.0
-20.62,409.8,914.63,-525.0,-262.5,-385.0
-20.86,409.43,915.85,35.0,437.5,35.0
-20.98,409.19,916.83,875.0,297.5,140.0
-20.86,409.31,917.32,1172.5,210.0,70.0
-20.86,409.31,917.32,1085.0,210.0,-122.5
-20.98,409.31,917.2,1190.0,-175.0,-262.5
-21.11,409.43,916.59,1347.5,-507.5,-140.0
-21.23,409.68,915.73,840.0,-525.0,-35.0
-21.23,409.92,914.88,122.5,-682.5,-245.0
-21.23,410.16,914.39,-17.5,-857.5,-262.5
-21.23,410.41,914.15,-122.5,-437.5,-227.5
-21.23,410.53,913.9,-175.0,-630.0,-350.0
-21.47,410.65,913.66,-350.0,-1190.0,-507.5
-21.72,410.53,913.9,-437.5,-1312.5,-490.0
-22.2,410.41,914.39,-350.0,-542.5,-35.0
-22.45,410.16,914.76,-175.0,-315.0,350.0
-22.69,409.92,915.24,-105.0,-332.5,420.0
-22.69,409.8,915.73,227.5,-647.5,350.0
-22.33,409.68,916.46,665.0,-402.5,402.5
-21.96,409.68,916.71,717.5,-157.5,297.5
-21.72,409.92,916.95,595.0,-122.5,157.5
-21.47,410.04,916.83,997.5,-560.0,70.0
-21.11,410.29,916.71,822.5,-402.5,0.0
-20.74,410.41,916.34,385.0,-17.5,-262.5
-20.74,410.29,915.73,577.5,-525.0,-385.0
-20.74,410.16,915.12,717.5,-945.0,-245.0
-20.74,410.41,914.39,70.0,-350.0,-175.0
-20.74,410.77,913.78,-735.0,-280.0,-297.5
-20.98,411.14,913.78,-945.0,-962.5,-595.0
-20.98,411.14,914.27,-787.5,-770.0,-490.0
-21.23,410.9,915.12,-315.0,-437.5,-210.0
-21.59,410.41,915.73,560.0,-507.5,17.5
-21.96,410.04,915.85,875.0,-805.0,315.0
-22.08,409.92,915.49,525.0,-980.0,280.0
-22.2,409.68,915.24,70.0,-980.0,315.0
-22.2,409.8,915.24,35.0,-700.0,525.0
-21.84,409.92,915.37,-472.5,0.0,525.0
-21.47,410.04,915.49,-717.5,-35.0,140.0
-21.11,409.92,915.98,-175.0,-472.5,-52.5
-20.98,409.68,916.34,490.0,-490.0,17.5
-20.98,409.55,916.22,682.5,-87.5,192.5
-21.35,409.68,915.37,402.5,-472.5,192.5
-21.59,410.04,914.51,-717.5,-665.0,122.5
-21.84,410.29,914.51,-1242.5,-735.0,-35.0
-22.08,410.41,915.37,-787.5,-455.0,332.5
-21.96,410.29,916.59,122.5,-350.0,682.5
-21.35,410.04,917.81,700.0,52.5,542.5
-20.86,409.8,918.54,1662.5,-140.0,280.0
-20.62,409.43,918.29,2117.5,-245.0,385.0
-20.5,409.31,917.07,1172.5,87.5,420.0
-20.74,409.43,915.24,52.5,-647.5,297.5
-20.98,409.55,913.78,-1120.0,-1225.0,192.5
-20.98,409.55,913.05,-2065.0,-665.0,175.0
-20.98,409.43,913.54,-1925.0,-770.0,367.5
-20.62,409.31,914.88,-717.5,-1382.5,280.0
-19.89,409.31,916.59,262.5,-1155.0,140.0
-19.28,409.31,918.17,1067.5,-87.5,87.5
-19.15,409.31,918.66,1400.0,577.5,87.5
-19.4,409.19,918.29,945.0,122.5,-52.5
-19.89,408.94,917.68,402.5,-420.0,52.5
-20.37,408.82,917.32,-70.0,105.0,700.0
-20.37,408.7,917.44,87.5,420.0,1155.0
-19.76,408.7,917.44,717.5,0.0,927.5
-18.67,408.82,917.56,1120.0,-472.5,402.5
-17.32,409.19,917.44,1330.0,-87.5,-210.0
-16.47,409.68,916.71,892.5,-175.0,-875.0
-16.1,410.04,915.73,35.0,-962.5,-1732.5
-16.35,410.16,915.0,-892.5,-1032.5,-1960.0
-17.2,409.92,915.24,-1487.5,-227.5,-1522.5
-18.06,409.55,916.22,-962.5,-262.5,-1050.0
-18.79,408.94,917.56,420.0,-735.0,-577.5
-19.28,408.46,919.03,1505.0,-175.0,-175.0
-19.52,408.21,919.88,2467.5,717.5,385.0
-19.52,408.58,919.39,2642.5,612.5,507.5
-19.52,409.19,917.93,1487.5,-122.5,-70.0
-19.64,409.68,916.46,-105.0,-122.5,-437.5
-19.76,409.8,915.73,-752.5,350.0,-280.0
-20.01,409.8,915.12,-437.5,-227.5,-420.0
-20.25,409.68,914.76,-105.0,-1487.5,-682.5
-20.37,409.31,914.88,-210.0,-1260.0,-630.0
-20.74,408.94,915.37,-332.5,0.0,-70.0
-21.11,408.7,915.73,245.0,-192.5,472.5
-21.23,408.82,915.85,280.0,-770.0,367.5
-21.23,409.07,916.22,-472.5,-297.5,210.0
-21.23,409.07,916.83,-140.0,-35.0,350.0
-21.23,408.94,917.32,910.0,-787.5,367.5
-20.98,408.94,917.32,875.0,-665.0,262.5
-20.74,408.94,916.95,175.0,-105.0,192.5
-20.74,408.94,916.34,245.0,-525.0,52.5
-20.98,409.07,915.73,-105.0,-595.0,-35.0
-21.47,408.94,915.24,-787.5,-262.5,280.0
-21.84,408.94,915.0,-612.5,-822.5,700.0
-21.72,408.94,915.12,-385.0,-1452.5,787.5
-21.11,409.07,915.73,-647.5,-682.5,367.5
-20.62,409.19,916.71,-822.5,-17.5,105.0
-20.5,408.82,917.93,122.5,-647.5,-122.5
-20.5,408.46,918.78,1435.0,-1032.5,175.0
-20.37,408.33,918.9,1382.5,-210.0,665.0
-20.25,408.33,918.42,840.0,52.5,630.0
-20.01,408.46,917.68,682.5,-840.0,262.5
-19.76,408.58,916.95,280.0,-1015.0,105.0
-19.52,408.7,916.46,-122.5,-525.0,245.0
-19.03,408.94,915.98,-490.0,-507.5,87.5
-18.67,409.19,916.1,-717.5,-840.0,-472.5
-18.42,409.19,916.34,-157.5,-1312.5,-647.5
-18.42,408.94,916.83,245.0,-1382.5,-630.0
-18.3,408.7,917.32,402.5,-997.5,-630.0
-18.54,408.46,917.68,175.0,17.5,-227.5
-18.91,408.33,917.93,-157.5,437.5,140.0
-19.15,408.21,918.05,227.5,-227.5,245.0
-19.15,408.21,918.17,507.5,-420.0,315.0
-19.03,408.21,918.29,245.0,175.0,245.0
-18.91,408.21,918.05,507.5,-192.5,157.5
-18.67,408.21,917.81,647.5,-1050.0,-52.5
-18.3,408.33,917.68,385.0,-665.0,-280.0
-18.18,408.46,917.44,-17.5,17.5,35.0
-18.06,408.46,917.32,-262.5,157.5,-175.0
-17.93,408.46,917.07,-192.5,-437.5,-507.5
-18.06,408.21,917.2,35.0,-472.5,-420.0
-18.18,408.21,917.07,297.5,-542.5,-140.0
-18.06,408.46,916.83,-70.0,-857.5,-192.5
-18.06,408.58,917.07,-700.0,-612.5,-542.5
-18.18,408.46,917.68,-735.0,-52.5,-507.5
-18.42,408.21,918.42,175.0,-525.0,-227.5
-18.67,407.97,919.15,1190.0,-997.5,-140.0
-18.67,407.6,919.51,1312.5,-262.5,17.5
-18.79,407.48,919.39,997.5,717.5,367.5
-18.79,407.48,918.66,770.0,210.0,332.5
-18.79,407.6,917.93,455.0,-822.5,-17.5
-18.67,407.72,917.44,-280.0,-647.5,-122.5
-18.54,407.72,917.32,-490.0,105.0,-17.5
-18.42,407.85,917.2,-175.0,-280.0,-157.5
-18.42,407.85,917.44,-227.5,-700.0,-367.5
-18.42,407.72,917.93,87.5,-787.5,-402.5
-18.67,407.48,918.29,542.5,-332.5,-52.5
-19.03,407.36,918.17,910.0,-542.5,402.5
-19.28,407.48,917.56,367.5,-997.5,210.0
-19.52,407.6,917.32,-472.5,-927.5,-17.5
-19.76,407.48,917.68,-525.0,-105.0,350.0
-19.76,407.24,918.42,17.5,280.0,647.5
-19.76,407.11,918.9,665.0,70.0,770.0
-19.52,406.99,919.03,840.0,-52.5,787.5
-19.03,407.24,918.9,647.5,157.5,665.0
-18.54,407.48,918.66,332.5,385.0,420.0
-18.06,407.72,918.29,122.5,-140.0,-52.5
-17.69,407.85,917.93,227.5,-735.0,-385.0
-17.57,407.72,917.93,245.0,-927.5,-472.5
-17.45,407.72,917.93,70.0,-402.5,-367.5
-17.57,407.72,917.81,0.0,-87.5,-332.5
-17.81,407.72,917.81,17.5,-525.0,-385.0
-18.06,407.48,917.93,-87.5,-717.5,-297.5
-18.3,407.24,918.17,-87.5,-315.0,-87.5
-18.42,406.99,918.66,210.0,52.5,157.5
-18.54,406.87,919.03,647.5,-87.5,157.5
-18.79,406.87,919.03,1067.5,-490.0,175.0
-19.03,406.87,918.9,787.5,87.5,385.0
-19.03,406.99,918.54,262.5,682.5,525.0
-19.03,406.99,917.93,297.5,-262.5,350.0
-19.03,406.99,917.44,280.0,-1085.0,70.0
-18.79,406.99,917.32,-52.5,-857.5,157.5
-18.3,407.11,917.44,-87.5,-262.5,175.0
-17.93,407.36,917.68,140.0,-280.0,35.0
-17.69,407.36,917.93,210.0,-367.5,-280.0
-17.57,407.24,918.17,192.5,-175.0,-437.5
-17.81,407.11,918.29,787.5,0.0,-175.0
-18.06,407.11,917.93,787.5,245.0,87.5
-18.18,407.48,917.07,-262.5,35.0,-35.0
-18.3,407.72,916.71,-595.0,-945.0,-420.0
-18.42,407.6,916.95,-385.0,-1190.0,-385.0
-18.54,407.48,917.68,17.5,-157.5,87.5
-18.54,407.11,918.17,262.5,350.0,315.0
-18.54,406.87,918.42,700.0,-420.0,105.0
-18.42,406.63,918.54,1137.5,-1085.0,-140.0
-18.42,406.63,918.29,717.5,-297.5,70.0
-18.42,406.75,917.93,-52.5,105.0,175.0
-18.3,406.75,917.68,-455.0,17.5,-35.0
-18.18,406.75,917.93,-157.5,-315.0,-122.5
-18.06,406.75,918.05,280.0,-297.5,-140.0
-18.06,406.75,918.17,507.5,-472.5,-210.0
-18.18,406.75,918.17,542.5,-455.0,-157.5
-18.18,406.75,917.93,665.0,-455.0,-105.0
-18.42,406.99,917.44,612.5,-647.5,-35.0
-18.54,407.24,916.71,35.0,-1015.0,-280.0
-18.67,407.36,916.46,-822.5,-577.5,-315.0
-18.91,407.11,916.83,-700.0,-332.5,157.5
-18.79,406.87,917.44,-105.0,-262.5,332.5
-18.54,406.75,918.17,140.0,175.0,140.0
-18.42,406.5,918.66,157.5,472.5,87.5
-18.54,406.5,918.9,612.5,70.0,140.0
-18.54,406.38,918.9,1015.0,-157.5,140.0
-18.54,406.38,918.54,945.0,-210.0,227.5
-18.67,406.5,917.93,437.5,-332.5,122.5
-18.54,406.63,917.44,-157.5,-472.5,-87.5
-18.54,406.63,917.2,-140.0,-647.5,17.5
-18.42,406.63,917.2,0.0,-892.5,-52.5
-18.3,406.75,917.44,17.5,-612.5,-262.5
-18.06,406.75,917.81,35.0,-315.0,-315.0
-17.93,406.63,918.17,612.5,-612.5,-262.5
-17.81,406.63,918.17,437.5,-157.5,-280.0
-18.06,406.63,918.17,105.0,52.5,-262.5
-18.3,406.5,918.05,542.5,-350.0,-192.5
-18.42,406.38,917.81,542.5,-280.0,-17.5
-18.54,406.5,917.44,-52.5,245.0,87.5
-18.79,406.5,917.07,-280.0,-157.5,17.5
-19.03,406.38,917.07,210.0,-1155.0,-87.5
-19.03,406.26,917.2,175.0,-770.0,122.5
-19.03,406.26,917.44,-402.5,192.5,367.5
-18.91,406.14,917.68,-52.5,17.5,350.0
-18.79,406.14,917.93,385.0,-560.0,122.5
-18.54,406.26,918.05,385.0,-385.0,70.0
-18.3,406.38,918.05,402.5,-105.0,17.5
-18.06,406.5,917.93,175.0,-52.5,-280.0
-18.18,406.5,917.81,157.5,-367.5,-402.5
-18.54,406.26,917.68,507.5,-297.5,-70.0
-18.79,406.26,917.2,507.5,-332.5,87.5
-18.91,406.38,916.59,-210.0,-525.0,122.5
-18.79,406.5,916.59,-1032.5,-700.0,-140.0
-18.54,406.5,917.2,-647.5,-805.0,-437.5
-18.54,406.26,918.29,437.5,-542.5,-157.5
-18.54,406.14,918.9,560.0,262.5,192.5
-18.42,406.02,919.15,717.5,-35.0,-70.0
-18.42,405.77,919.27,1295.0,-962.5,-367.5
-18.42,405.65,919.03,1347.5,-560.0,-122.5
-18.42,405.65,918.54,525.0,525.0,105.0
-18.42,405.77,917.93,-52.5,262.5,-52.5
-18.54,405.89,917.44,-87.5,-402.5,-367.5
-18.79,405.77,917.32,35.0,-507.5,-140.0
-18.91,405.65,916.95,385.0,-997.5,52.5
-18.91,405.77,916.71,542.5,-1855.0,-175.0
-18.79,406.02,916.71,280.0,-1750.0,-332.5
-18.79,406.14,916.95,-192.5,192.5,-87.5
-18.91,406.26,917.2,-700.0,1155.0,157.5
-19.15,406.14,917.44,-245.0,-420.0,-140.0
-19.4,405.89,918.05,577.5,-945.0,-52.5
-19.52,405.65,918.42,665.0,70.0,542.5
-19.4,405.53,918.29,402.5,262.5,507.5
-19.15,405.65,918.05,630.0,-840.0,122.5
-19.03,405.77,917.93,455.0,-752.5,-52.5
-18.91,405.89,917.68,-105.0,-35.0,105.0
-18.91,405.89,917.32,-280.0,140.0,280.0
-18.67,405.89,917.2,140.0,-770.0,17.5
-18.54,405.89,917.2,350.0,-1190.0,-262.5
-18.42,406.02,917.32,157.5,-962.5,-350.0
-18.54,406.02,917.68,-17.5,-542.5,-157.5
-18.54,405.89,917.93,70.0,-577.5,-52.5
-18.67,405.77,918.05,577.5,-1032.5,-52.5
-18.67,405.77,918.05,700.0,-1207.5,35.0
-18.54,405.89,918.05,525.0,-700.0,35.0
-18.42,406.14,918.05,175.0,-210.0,-105.0
-18.54,406.14,918.17,175.0,-437.5,-175.0
-18.54,405.89,918.29,455.0,-420.0,52.5
-18.67,405.77,918.54,297.5,385.0,385.0
-18.79,405.77,918.42,385.0,402.5,507.5
-18.79,405.89,918.17,472.5,-560.0,227.5
-18.54,405.89,918.05,525.0,-1015.0,17.5
-18.3,405.89,918.17,210.0,-175.0,280.0
-17.81,405.89,918.29,105.0,245.0,315.0
-17.32,406.14,918.42,420.0,-227.5,-157.5
-17.2,406.26,918.66,682.5,-595.0,-490.0
-17.08,406.26,918.78,647.5,-70.0,-332.5
-17.2,406.14,918.66,665.0,437.5,-105.0
-17.32,406.14,918.17,630.0,87.5,-35.0
-17.32,406.26,917.56,577.5,-472.5,-262.5
-17.45,406.5,917.2,0.0,-647.5,-420.0
-17.57,406.75,917.2,-105.0,-910.0,-560.0
-17.81,406.75,917.32,157.5,-997.5,-402.5
-18.06,406.63,917.81,-192.5,-262.5,35.0
-18.3,406.38,918.66,-227.5,437.5,175.0
-18.3,406.14,919.39,735.0,192.5,350.0
-18.18,405.89,919.64,1610.0,-262.5,315.0
-18.06,405.77,919.39,1575.0,-560.0,140.0
-18.06,405.89,918.66,1032.5,-560.0,52.5
-17.93,406.02,918.17,577.5,-787.5,-35.0
-17.81,406.14,917.93,210.0,-980.0,-210.0
-17.81,406.26,917.93,262.5,-1137.5,-420.0
-17.81,406.26,918.17,350.0,-630.0,-385.0
-17.93,406.02,918.42,542.5,70.0,-140.0
-18.3,406.02,918.54,857.5,472.5,52.5
-18.79,406.02,918.17,910.0,227.5,192.5
-19.03,406.02,917.68,542.5,-52.5,385.0
-19.4,406.14,917.44,227.5,157.5,717.5
-19.4,406.26,917.2,-87.5,595.0,1015.0
-19.15,406.5,916.95,140.0,17.5,700.0
-18.91,406.87,916.95,525.0,-805.0,192.5
-18.67,406.99,917.07,525.0,-402.5,245.0
-18.42,407.11,916.83,210.0,297.5,420.0
-18.3,407.24,916.46,17.5,-402.5,157.5
-18.3,407.11,916.22,245.0,-1330.0,-17.5
-18.3,406.99,916.22,157.5,-962.5,175.0
-18.18,406.99,916.22,-105.0,-717.5,280.0
-18.06,407.11,916.46,-280.0,-700.0,70.0
-17.93,406.99,917.07,-227.5,-402.5,-87.5
-18.06,406.87,917.56,157.5,-70.0,157.5
-18.06,406.75,917.81,280.0,17.5,280.0
-18.06,406.5,917.93,297.5,122.5,210.0
-18.3,406.5,917.68,647.5,-105.0,402.5
-18.3,406.5,917.44,402.5,-227.5,455.0
-18.06,406.63,917.2,-17.5,-35.0,245.0
-17.93,406.63,917.2,105.0,-17.5,350.0
-17.57,406.87,916.95,157.5,-192.5,367.5
-17.08,407.24,916.83,140.0,-437.5,-122.5
-16.71,407.48,916.95,350.0,-892.5,-700.0
-16.59,407.48,917.07,560.0,-735.0,-700.0
-16.84,407.36,916.95,245.0,-52.5,-490.0
-17.2,406.99,916.83,157.5,-367.5,-420.0
-17.57,406.5,916.71,385.0,-752.5,-70.0
-17.57,406.38,916.59,752.5,-210.0,280.0
-17.69,406.63,915.85,175.0,-332.5,192.5
-17.69,407.24,915.24,-630.0,-1435.0,-385.0
-17.57,407.48,915.61,-595.0,-1207.5,-700.0
-17.57,407.24,916.46,-140.0,-367.5,-280.0
-17.57,406.87,916.95,542.5,-70.0,17.5
-17.57,406.5,916.95,787.5,297.5,210.0
-17.57,406.5,916.34,210.0,35.0,-52.5
-17.45,406.38,915.85,52.5,-840.0,-315.0
-17.32,406.26,915.85,-315.0,-647.5,-332.5
-17.08,406.26,916.34,-490.0,-140.0,-420.0
-17.08,406.26,916.83,87.5,-262.5,-437.5
-17.08,406.38,917.07,350.0,-315.0,-420.0
-17.2,406.38,917.32,157.5,52.5,-490.0
-17.32,406.14,917.44,665.0,-280.0,-385.0
-17.57,406.02,917.07,1242.5,-595.0,-262.5
-17.81,406.14,916.22,630.0,-525.0,-227.5
-18.06,406.38,915.24,-560.0,-402.5,-227.5
-18.18,406.5,914.88,-1137.5,-525.0,-315.0
-18.06,406.5,915.24,-595.0,-892.5,-350.0
-18.06,406.5,915.73,-175.0,-787.5,-350.0
-18.06,406.38,916.34,-472.5,-315.0,-490.0
-18.18,406.14,917.07,17.5,-105.0,-315.0
-18.42,405.77,917.56,560.0,-35.0,35.0
-18.54,405.77,917.56,402.5,-140.0,192.5
-18.79,405.65,917.44,105.0,-280.0,-17.5
-19.03,405.41,917.68,315.0,-210.0,227.5
-18.91,405.28,917.68,700.0,280.0,647.5
-18.67,405.41,917.32,455.0,17.5,402.5
-18.3,405.65,916.95,262.5,-805.0,-122.5
-18.06,405.77,916.95,210.0,-805.0,-245.0
-17.93,405.89,916.95,140.0,-210.0,-87.5
-17.93,405.89,916.83,122.5,-315.0,-105.0
-18.06,405.89,916.71,-52.5,-717.5,-140.0
-18.06,405.77,916.71,-105.0,-595.0,-87.5
-18.18,405.89,916.83,-105.0,-367.5,-17.5
-18.3,405.89,916.95,52.5,-507.5,-70.0
-18.54,405.89,917.2,105.0,-455.0,52.5
-18.54,405.77,917.2,87.5,-175.0,385.0
-18.42,405.77,917.32,-192.5,-157.5,227.5
-18.3,405.89,917.56,280.0,-752.5,-87.5
-18.3,405.77,917.68,665.0,-647.5,17.5
-18.3,405.65,917.32,315.0,-52.5,437.5
-18.06,405.77,916.83,-350.0,-245.0,70.0
-18.06,405.65,916.71,-140.0,-980.0,-315.0
-18.06,405.53,916.95,17.5,-385.0,87.5
-18.06,405.53,916.71,0.0,-280.0,262.5
-17.81,405.77,916.46,-385.0,-875.0,0.0
-17.57,406.02,916.83,-630.0,-1295.0,-367.5
-17.57,405.89,917.81,-612.5,-437.5,-280.0
-17.57,405.65,918.9,280.0,-227.5,17.5
-17.57,405.53,919.51,1225.0,-420.0,210.0
-17.57,405.41,919.51,1470.0,-665.0,175.0
-17.45,405.28,918.9,980.0,-577.5,87.5
-17.32,405.16,918.42,227.5,-227.5,35.0
-17.32,405.28,918.05,-175.0,157.5,52.5
-17.32,405.28,917.68,87.5,-507.5,-122.5
-17.32,405.53,917.44,17.5,-1295.0,-385.0
-17.32,405.28,917.44,-472.5,-1067.5,-367.5
-17.32,405.04,918.05,-332.5,-192.5,-105.0
-17.32,404.92,918.66,612.5,-105.0,140.0
-17.45,404.92,918.9,1190.0,-647.5,87.5
-17.45,405.16,918.42,472.5,-297.5,157.5
-17.57,405.28,918.17,-350.0,192.5,280.0
-17.57,405.41,918.17,-210.0,70.0,262.5
-17.45,405.28,918.17,262.5,-367.5,192.5
-17.32,405.16,918.17,210.0,-402.5,175.0
-17.08,405.16,918.42,52.5,-140.0,262.5
-16.84,405.16,918.54,52.5,17.5,35.0
-16.59,405.28,918.54,437.5,-350.0,-122.5
-16.47,405.28,918.42,385.0,-647.5,-245.0
-16.47,405.28,918.29,70.0,-420.0,-315.0
-16.47,405.16,918.29,-35.0,-245.0,-297.5
-16.47,404.92,918.42,122.5,-560.0,-210.0
-16.59,404.8,918.66,350.0,-752.5,-332.5
-16.71,404.67,918.9,192.5,-560.0,-350.0
-16.71,404.43,919.39,455.0,-70.0,17.5
-16.84,404.31,919.76,630.0,385.0,175.0
-16.84,404.43,919.64,647.5,227.5,210.0
-16.84,404.55,919.27,752.5,-437.5,17.5
-16.84,404.67,918.66,490.0,-682.5,-210.0
-16.84,404.8,918.42,105.0,-455.0,-140.0
-16.84,404.8,918.17,-105.0,-192.5,-105.0
-16.84,404.8,918.17,17.5,-490.0,-157.5
-16.71,404.8,918.29,385.0,-717.5,-140.0
-16.59,404.8,918.29,87.5,-455.0,-87.5
-16.35,404.8,918.42,-52.5,-280.0,-280.0
-16.35,404.8,918.66,35.0,-280.0,-525.0
-16.35,404.67,918.9,175.0,-455.0,-507.5
-16.59,404.55,919.15,577.5,-665.0,-262.5
-16.84,404.55,919.15,525.0,-717.5,-122.5
-16.96,404.8,919.15,577.5,-612.5,-87.5
-16.96,405.04,918.9,525.0,-892.5,-227.5
-16.84,405.04,918.9,52.5,-1137.5,-700.0
-16.96,404.67,919.51,612.5,-805.0,-735.0
-17.2,404.06,919.88,1382.5,-297.5,-105.0
-17.57,403.7,919.64,1067.5,-35.0,385.0
-17.81,403.7,919.15,647.5,-52.5,472.5
-17.93,404.06,918.54,367.5,-315.0,560.0
-17.93,404.8,918.05,-122.5,-577.5,595.0
-17.69,405.53,917.93,-350.0,-910.0,157.5
-17.32,405.65,918.17,-245.0,-1155.0,-87.5
-16.96,405.04,918.9,52.5,-927.5,-157.5
-16.59,404.31,919.64,1382.5,-1365.0,-35.0
-16.1,403.82,919.88,1942.5,-875.0,175.0
-15.62,403.94,919.39,805.0,472.5,35.0
-15.86,404.31,918.29,262.5,-157.5,-210.0
-16.23,404.8,917.32,17.5,-1522.5,-367.5
-16.59,405.16,917.07,-1032.5,-980.0,-227.5
-16.84,404.92,917.81,-1242.5,262.5,315.0
-16.71,404.55,919.15,140.0,542.5,717.5
-16.35,404.55,920.12,1907.5,682.5,630.0
-16.35,404.92,919.51,1365.0,962.5,472.5
-16.84,405.28,918.17,-52.5,612.5,455.0
-17.32,405.41,916.95,-157.5,-210.0,630.0
-17.57,405.28,915.85,-665.0,-367.5,1050.0
-17.45,405.04,915.37,-1487.5,-542.5,1120.0
-17.08,404.92,915.61,-1102.5,-1067.5,927.5
-16.59,405.16,916.1,-945.0,-1242.5,437.5
-16.47,405.53,916.95,-1312.5,-1085.0,-70.0
-16.47,405.41,918.05,-875.0,-822.5,-157.5
-16.59,404.92,919.27,87.5,-752.5,122.5
-16.59,404.55,920.25,752.5,-1050.0,87.5
-16.59,404.31,920.86,945.0,-1015.0,-105.0
-16.59,404.06,921.47,1085.0,-612.5,35.0
-16.59,403.94,921.83,1382.5,-157.5,490.0
-16.35,404.06,921.71,1400.0,227.5,612.5
-15.98,404.31,921.22,892.5,-122.5,157.5
-15.74,404.31,920.73,682.5,-752.5,-245.0
-15.86,404.06,920.49,735.0,-87.5,332.5
-15.86,403.94,920.0,490.0,752.5,997.5
-15.62,403.94,919.15,525.0,-490.0,770.0
-15.37,404.19,918.66,612.5,-1487.5,262.5
-15.25,404.31,918.42,70.0,-560.0,385.0
-14.88,404.31,918.42,-420.0,192.5,717.5
-14.4,404.43,918.66,87.5,-437.5,332.5
-13.91,404.55,919.03,385.0,-490.0,-157.5
-13.54,404.8,919.15,350.0,17.5,-210.0
-13.42,404.8,919.27,525.0,-70.0,-297.5
-13.42,405.04,919.15,910.0,-542.5,-542.5
-13.42,405.16,918.78,612.5,-210.0,-490.0
-13.42,405.28,918.42,105.0,-35.0,-507.5
-13.66,405.28,918.17,105.0,-525.0,-717.5
-13.66,405.16,918.42,192.5,-507.5,-717.5
-13.79,405.16,918.78,192.5,105.0,-507.5
-13.91,405.04,919.15,350.0,105.0,-297.5
-13.91,404.92,919.51,717.5,-192.5,-402.5
-13.91,404.8,919.76,997.5,-350.0,-595.0
-14.15,404.55,919.64,1225.0,-297.5,-437.5
-14.4,404.31,919.27,1032.5,262.5,35.0
-14.76,404.43,918.42,490.0,-192.5,87.5
-14.88,404.8,917.81,-227.5,-997.5,-122.5
-15.01,404.92,917.81,-122.5,-1277.5,-210.0
-14.88,405.16,918.17,87.5,-577.5,35.0
-14.64,405.28,918.42,105.0,-472.5,-105.0
-14.52,405.28,918.9,525.0,-647.5,-437.5
-14.52,405.16,919.51,1190.0,-420.0,-350.0
-14.64,405.04,919.51,1242.5,-105.0,-227.5
-14.76,405.04,919.15,1172.5,-385.0,-402.5
-14.88,405.04,918.78,857.5,-332.5,-385.0
-15.13,405.04,918.29,455.0,-105.0,-157.5
-15.49,405.16,917.93,350.0,-367.5,-157.5
-15.62,405.16,917.68,420.0,-770.0,-52.5
-15.74,405.16,917.68,-35.0,-17.5,262.5
-15.62,405.16,917.68,70.0,647.5,507.5
-15.49,405.28,917.44,630.0,-70.0,385.0
-15.37,405.77,916.95,682.5,-875.0,35.0
-15.37,406.02,916.34,157.5,-822.5,-87.5
-15.37,406.14,916.1,-525.0,-472.5,105.0
-15.13,406.14,916.34,-752.5,-455.0,70.0
-14.76,406.14,917.2,-577.5,17.5,-52.5
-14.52,406.02,917.93,-35.0,-70.0,-192.5
-14.4,406.02,918.78,787.5,-507.5,-420.0
-14.4,405.77,919.15,1347.5,-472.5,-437.5
-14.64,405.77,919.15,1277.5,-210.0,-87.5
-14.64,405.89,918.78,892.5,280.0,-17.5
-14.88,406.14,918.05,385.0,-122.5,-262.5
-15.13,406.26,917.56,105.0,-822.5,-472.5
-15.25,406.26,917.56,70.0,-647.5,-385.0
-15.49,406.26,917.81,315.0,-315.0,-122.5
-15.62,406.26,917.93,472.5,-350.0,-35.0
-15.49,406.14,918.17,420.0,-490.0,-175.0
-15.37,406.14,918.66,752.5,-350.0,-35.0
-15.37,406.26,918.78,962.5,-35.0,122.5
-15.37,406.38,918.42,717.5,-17.5,52.5
-15.25,406.5,918.05,472.5,-175.0,-70.0
-15.25,406.5,917.68,875.0,-735.0,-35.0
-15.13,406.75,917.2,472.5,-192.5,0.0
-14.88,406.99,916.95,-245.0,245.0,-140.0
-14.88,407.11,916.83,-17.5,-367.5,-350.0
-14.88,407.24,916.95,735.0,-1067.5,-595.0
-14.88,407.24,916.95,647.5,-472.5,-472.5
-14.88,407.24,916.83,385.0,-17.5,-332.5
-14.88,407.24,916.83,875.0,-647.5,-420.0
-15.01,407.11,916.71,822.5,-315.0,-332.5
-15.13,407.24,916.71,35.0,822.5,-70.0
-15.25,407.36,916.46,-525.0,1155.0,-35.0
-15.37,407.36,916.46,-490.0,-122.5,-140.0
-15.62,407.36,916.83,420.0,-857.5,-280.0
-15.62,407.24,917.2,700.0,-140.0,35.0
-15.74,406.99,917.44,630.0,17.5,17.5
-15.86,406.87,917.2,1260.0,-1172.5,-315.0
-16.1,406.75,916.83,1330.0,-1120.0,-192.5
-16.35,406.99,916.1,70.0,210.0,157.5
-16.59,407.36,915.24,-1015.0,367.5,140.0
-16.71,407.72,915.0,-735.0,-1522.5,-367.5
-16.71,407.97,915.49,-175.0,-1785.0,-612.5
-16.96,407.85,916.34,-227.5,-437.5,-227.5
-17.32,407.6,917.2,17.5,210.0,140.0
-17.57,407.24,917.81,892.5,-70.0,455.0
-17.69,406.87,918.05,980.0,560.0,875.0
-17.69,406.63,917.93,367.5,1102.5,1032.5
-17.81,406.5,917.44,437.5,122.5,875.0
-17.81,406.38,917.2,752.5,-420.0,822.5
-17.57,406.5,916.83,315.0,560.0,1155.0
-17.32,406.75,916.22,-402.5,682.5,1190.0
-16.84,407.11,915.73,-385.0,-507.5,577.5
-16.23,407.36,915.73,-455.0,-665.0,175.0
-15.86,407.48,915.98,-437.5,105.0,17.5
-15.62,407.48,916.22,-175.0,-17.5,-17.5
-15.37,407.6,916.34,227.5,-980.0,-385.0
-15.37,407.6,916.71,140.0,-1015.0,-612.5
-15.37,407.6,917.2,192.5,-192.5,-367.5
-15.37,407.6,917.44,175.0,245.0,-297.5
-15.37,407.6,917.32,297.5,-367.5,-647.5
-15.62,407.48,917.32,367.5,-892.5,-752.5
-15.86,407.11,917.32,175.0,-175.0,-437.5
-16.23,406.87,917.32,0.0,332.5,-140.0
-16.59,406.63,917.32,105.0,-315.0,-192.5
-16.96,406.5,917.56,245.0,-560.0,-140.0
-17.2,406.26,917.93,665.0,-315.0,350.0
-17.08,406.26,918.05,525.0,490.0,612.5
-16.96,406.38,917.68,210.0,192.5,315.0
-16.59,406.63,917.44,227.5,-717.5,-105.0
-16.35,406.75,917.56,332.5,-402.5,-105.0
-16.1,406.75,917.56,227.5,455.0,87.5
-15.86,406.99,917.2,280.0,-227.5,-420.0
-15.74,407.11,916.95,455.0,-1242.5,-1067.5
-15.86,407.11,916.83,87.5,-752.5,-875.0
-16.1,406.99,916.95,-367.5,122.5,-595.0
-16.47,406.75,917.07,52.5,-140.0,-437.5
-16.84,406.75,917.2,175.0,-175.0,-280.0
-16.96,406.5,917.32,-262.5,297.5,-227.5
-17.2,406.38,917.68,0.0,122.5,-192.5
-17.45,406.14,917.93,875.0,-507.5,-210.0
-17.57,406.02,918.17,735.0,-17.5,17.5
-17.69,406.02,918.05,367.5,385.0,70.0
-17.57,406.14,917.68,542.5,-227.5,-52.5
-17.57,406.38,917.32,385.0,-787.5,-420.0
-17.57,406.26,917.2,122.5,-367.5,-490.0
-17.93,406.02,916.95,437.5,52.5,-35.0
-18.18,405.77,916.22,192.5,-262.5,192.5
-18.42,406.02,915.24,-577.5,-822.5,-17.5
-18.54,406.14,915.0,-1400.0,-1155.0,-280.0
-18.79,406.26,915.98,-1505.0,-612.5,-175.0
-19.03,406.02,917.56,-385.0,-17.5,210.0
-19.28,405.77,918.9,455.0,350.0,490.0
-19.4,405.53,919.88,945.0,437.5,682.5
-19.52,405.28,920.12,1627.5,262.5,892.5
-19.52,405.04,919.64,1505.0,87.5,962.5
-19.28,405.28,918.66,875.0,-192.5,770.0
-18.79,405.53,917.81,105.0,-262.5,385.0
-18.3,405.77,917.2,-157.5,-350.0,52.5
-18.06,406.02,916.95,-35.0,-840.0,-210.0
-17.69,406.02,916.83,-157.5,-857.5,-332.5
-17.57,406.02,916.83,-490.0,-612.5,-472.5
-17.57,405.89,917.32,-87.5,-612.5,-560.0
-17.69,405.77,917.68,350.0,-507.5,-455.0
-18.18,405.65,917.93,367.5,-262.5,-140.0
-18.54,405.53,917.93,70.0,-175.0,175.0
-18.67,405.53,918.17,192.5,192.5,350.0
-18.79,405.65,918.17,472.5,-105.0,385.0
-18.79,405.77,918.05,770.0,-770.0,227.5
-18.79,405.89,917.68,490.0,-577.5,175.0
-18.79,405.77,917.2,-52.5,-35.0,227.5
-18.79,405.77,916.83,-210.0,-210.0,210.0
-18.79,405.89,916.59,-315.0,-892.5,175.0
-18.54,405.89,916.71,-542.5,-752.5,17.5
-18.3,405.77,917.2,-542.5,-455.0,-17.5
-18.18,405.65,917.68,175.0,-700.0,-52.5
-17.81,405.65,917.93,262.5,-945.0,-192.5
-17.57,405.65,918.29,17.5,-822.5,-280.0
-17.32,405.53,918.78,525.0,-577.5,-227.5
-17.08,405.65,918.78,787.5,-525.0,-210.0
-16.71,405.89,918.42,157.5,-542.5,-542.5
-16.59,406.02,918.17,157.5,-542.5,-857.5
-16.84,406.02,917.93,315.0,-787.5,-770.0
-17.08,405.89,917.68,70.0,-1032.5,-735.0
-17.57,405.65,917.44,-280.0,-647.5,-490.0
-17.81,405.28,917.68,-577.5,-210.0,-35.0
-17.69,405.16,918.17,-665.0,-105.0,-192.5
-17.69,404.92,919.27,87.5,-525.0,-437.5
-17.81,404.67,920.25,1085.0,-157.5,-157.5
-17.81,404.55,920.61,1067.5,647.5,192.5
-17.81,404.55,920.61,717.5,717.5,35.0
-17.93,404.55,920.37,945.0,-35.0,-140.0
-18.06,404.31,920.0,1295.0,-70.0,140.0
-17.93,404.67,919.15,1050.0,472.5,315.0
-17.81,405.28,917.56,0.0,-227.5,17.5
-17.57,406.02,916.46,-997.5,-1557.5,-875.0
-17.57,406.26,916.46,-1067.5,-1592.5,-1207.5
-17.69,406.14,916.83,-630.0,-840.0,-630.0
-17.69,405.89,917.32,-350.0,-385.0,-332.5
-17.69,405.53,917.56,-420.0,-507.5,-525.0
-17.81,405.16,918.17,-70.0,-945.0,-647.5
-18.3,404.8,918.9,315.0,-647.5,-262.5
-18.54,404.55,919.51,542.5,52.5,262.5
-18.67,404.43,919.76,315.0,175.0,227.5
-18.54,404.43,919.88,227.5,-192.5,52.5
-18.42,404.31,920.12,525.0,-367.5,35.0
-18.18,404.43,920.37,682.5,-70.0,52.5
-18.06,404.55,920.25,980.0,-17.5,-140.0
-18.06,404.67,919.76,875.0,-192.5,-245.0
-18.3,404.8,919.15,525.0,-507.5,-280.0
-18.42,405.04,918.54,192.5,-805.0,-385.0
-18.67,405.04,918.17,-245.0,-717.5,-315.0
-18.79,404.92,918.05,-647.5,-490.0,-122.5
-18.91,404.8,918.42,-35.0,-787.5,35.0
-18.91,404.8,918.9,210.0,-490.0,35.0
-18.79,404.67,919.39,-17.5,52.5,17.5
-18.91,404.55,919.64,525.0,-122.5,192.5
-18.91,404.55,919.64,1102.5,-770.0,402.5
-18.79,404.55,919.39,472.5,-560.0,192.5
-18.54,404.67,919.15,0.0,-350.0,-17.5
-18.67,404.43,918.9,262.5,-630.0,280.0
-18.54,404.31,918.66,192.5,-507.5,490.0
-18.3,404.43,918.42,-262.5,-455.0,315.0
-18.06,404.55,918.66,-245.0,-577.5,-140.0
-18.06,404.55,919.15,-17.5,-350.0,-385.0
-18.3,404.31,919.39,420.0,-192.5,17.5
-18.67,404.31,919.27,472.5,140.0,455.0
-18.91,404.31,918.9,-297.5,105.0,385.0
-19.15,404.31,918.78,-192.5,-857.5,175.0
-19.4,404.19,918.9,315.0,-647.5,507.5
-19.4,404.19,918.9,-35.0,420.0,1067.5
-19.15,404.31,918.66,-350.0,210.0,822.5
-18.91,404.31,918.66,-87.5,-787.5,280.0
-18.54,404.19,919.03,0.0,-455.0,315.0
-18.3,404.06,919.39,-70.0,455.0,595.0
-17.81,404.06,919.64,175.0,367.5,455.0
-17.57,404.06,919.76,175.0,-280.0,-52.5
-17.32,404.06,919.88,420.0,-560.0,-175.0
-17.32,403.94,919.88,525.0,35.0,35.0
-17.32,403.94,919.51,525.0,-420.0,0.0
-17.32,403.82,918.9,787.5,-1172.5,-332.5
-17.32,403.82,918.17,367.5,-1155.0,-280.0
-17.32,403.94,917.68,-945.0,-175.0,17.5
-17.08,404.06,918.05,-1225.0,17.5,-262.5
-17.32,404.06,918.78,-245.0,-770.0,-630.0
-17.81,403.7,919.64,490.0,-665.0,-262.5
-18.3,403.33,920.12,472.5,455.0,490.0
-18.67,402.97,920.25,612.5,490.0,875.0
-18.67,402.84,920.0,875.0,-350.0,647.5
-18.54,402.97,919.76,805.0,-490.0,455.0
-18.18,402.97,919.39,245.0,52.5,402.5
-17.81,403.09,919.15,17.5,105.0,297.5
-17.45,403.21,918.9,-17.5,175.0,122.5
-17.08,403.45,918.78,17.5,-315.0,-227.5
-16.71,403.58,918.66,210.0,-805.0,-612.5
-16.59,403.7,918.66,297.5,-752.5,-665.0
-16.59,403.7,918.66,210.0,-350.0,-717.5
-16.84,403.7,918.54,140.0,-17.5,-490.0
-17.2,403.82,918.05,-87.5,-332.5,-385.0
-17.57,403.82,917.68,-245.0,-1015.0,-542.5
-17.81,403.82,917.68,-280.0,-997.5,-472.5
-18.18,403.58,917.68,-420.0,-682.5,-297.5
-18.54,403.33,918.05,-315.0,-332.5,-70.0
-18.67,403.09,918.54,-227.5,-210.0,35.0
-18.79,402.84,919.03,87.5,-87.5,245.0
-19.03,402.6,919.15,367.5,-17.5,402.5
-19.03,402.48,919.15,70.0,245.0,420.0
-19.15,402.48,919.03,122.5,0.0,420.0
-19.15,402.36,918.78,262.5,-315.0,437.5
-19.03,402.48,918.78,192.5,-350.0,315.0
-18.67,402.36,918.66,-122.5,0.0,315.0
-18.3,402.36,918.78,0.0,-35.0,210.0
-17.93,402.36,918.9,420.0,-560.0,-35.0
-17.57,402.48,918.78,297.5,-857.5,-367.5
-17.32,402.48,918.9,157.5,-332.5,-577.5
-17.32,402.36,919.15,140.0,367.5,-280.0
-17.45,402.23,919.03,455.0,-122.5,-297.5
-17.57,402.11,918.78,420.0,-577.5,-507.5
-17.93,402.11,918.66,87.5,-630.0,-490.0
-18.42,401.87,918.78,297.5,-315.0,-105.0
-18.67,401.62,918.9,647.5,-105.0,280.0
-18.79,401.62,918.54,297.5,70.0,297.5
-18.79,401.75,918.17,122.5,-595.0,-17.5
-18.79,401.62,918.05,332.5,-822.5,-175.0
-18.79,401.62,918.05,385.0,-472.5,122.5
-18.79,401.62,918.05,-192.5,175.0,175.0
-18.67,401.62,918.05,52.5,-122.5,87.5
-18.54,401.75,918.05,332.5,-752.5,17.5
-18.18,401.87,918.17,262.5,-787.5,-280.0
-18.06,401.87,918.42,-157.5,175.0,-332.5
-18.06,401.87,918.54,87.5,70.0,-227.5
-17.93,401.75,918.78,525.0,-332.5,-245.0
-17.93,401.75,918.78,665.0,-455.0,-437.5
-18.3,401.62,918.66,665.0,-560.0,-402.5
-18.54,401.38,918.42,735.0,-630.0,-175.0
-18.79,401.38,917.93,402.5,-227.5,157.5
-18.67,401.62,917.44,-472.5,-227.5,87.5
-18.54,401.75,917.56,-560.0,-997.5,-367.5
-18.42,401.75,918.17,70.0,-1452.5,-612.5
-18.54,401.62,919.03,455.0,-577.5,-297.5
-18.54,401.5,919.64,507.5,577.5,227.5
-18.54,401.38,919.88,805.0,140.0,105.0
-18.54,401.14,919.76,1295.0,-980.0,-210.0
-18.42,401.14,919.64,1190.0,-297.5,35.0
-18.3,401.38,919.15,472.5,910.0,210.0
-18.18,401.62,918.42,-70.0,140.0,-350.0
-18.18,401.62,917.93,87.5,-1190.0,-752.5
-18.3,401.5,917.68,175.0,-682.5,-297.5
-18.3,401.62,917.68,-52.5,52.5,-70.0
-18.3,401.62,917.56,17.5,-385.0,-420.0
-18.54,401.62,917.56,490.0,-980.0,-490.0
-18.79,401.62,917.56,297.5,-210.0,-87.5
-19.03,401.75,917.32,-210.0,402.5,52.5
-19.52,401.87,916.95,-157.5,-385.0,105.0
-19.76,401.75,916.95,-70.0,-997.5,17.5
-19.76,401.62,917.32,-175.0,-525.0,105.0
-19.89,401.38,917.68,-70.0,17.5,420.0
-19.76,401.14,918.05,262.5,-105.0,350.0
-19.64,401.14,918.17,577.5,-612.5,245.0
-19.4,401.14,918.17,560.0,-280.0,332.5
-19.15,401.26,918.17,385.0,17.5,297.5
-19.03,401.38,917.93,315.0,-297.5,-35.0
-18.91,401.38,917.81,262.5,-507.5,-175.0
-18.91,401.38,917.68,350.0,-472.5,-17.5
-18.91,401.38,917.44,262.5,-560.0,17.5
-18.79,401.5,917.2,-17.5,-910.0,-367.5
-18.91,401.5,917.07,70.0,-945.0,-315.0
-19.15,401.38,917.2,52.5,-577.5,52.5
-19.03,401.38,917.2,-455.0,52.5,157.5
-19.15,401.26,917.56,-402.5,-70.0,52.5
-19.28,401.14,918.05,70.0,-227.5,87.5
-19.4,400.89,918.42,245.0,70.0,367.5
-19.4,400.89,918.66,350.0,-17.5,525.0
-19.28,401.01,918.78,367.5,-332.5,297.5
-19.03,401.14,918.78,507.5,-437.5,35.0
-19.03,401.14,918.66,262.5,-17.5,175.0
-19.03,401.14,918.66,175.0,52.5,315.0
-18.91,401.14,918.66,455.0,-402.5,175.0
-18.67,401.38,918.54,262.5,-262.5,-17.5
-18.54,401.38,918.66,297.5,-350.0,-105.0
-18.54,401.5,918.66,735.0,-735.0,-157.5
-18.54,401.5,918.66,682.5,-542.5,-175.0
-18.67,401.5,918.29,227.5,105.0,35.0
-18.67,401.5,918.05,-87.5,-595.0,-140.0
-18.54,401.38,918.17,350.0,-1330.0,-437.5
-18.54,401.26,918.54,297.5,-367.5,-105.0
-18.54,401.14,918.9,192.5,385.0,157.5
-18.42,401.14,919.15,805.0,-402.5,35.0
-18.3,401.26,919.15,875.0,-472.5,-297.5
-18.3,401.14,919.15,612.5,192.5,-157.5
-18.67,401.01,918.66,962.5,-140.0,52.5
-18.79,401.01,918.17,892.5,-822.5,35.0
-18.67,401.14,917.81,105.0,-1085.0,70.0
-18.42,401.26,917.93,-17.5,-875.0,52.5
-17.93,401.62,918.42,-140.0,-70.0,-52.5
-17.57,401.87,918.78,-17.5,-35.0,-577.5
-17.45,401.99,919.15,647.5,-857.5,-1067.5
-17.81,401.75,919.51,1137.5,-752.5,-857.5
-18.3,401.38,919.64,1312.5,175.0,-157.5
-18.79,401.14,919.27,1260.0,70.0,122.5
-19.28,401.26,918.54,927.5,-525.0,-52.5
-19.76,401.26,917.93,105.0,-315.0,175.0
-20.13,401.26,917.68,-402.5,157.5,490.0
-20.25,401.14,917.68,-35.0,-245.0,437.5
-20.25,401.14,917.68,280.0,-752.5,350.0
-20.13,401.14,918.17,297.5,-315.0,507.5
-20.01,401.14,918.42,577.5,350.0,647.5
-19.64,401.38,918.17,840.0,70.0,700.0
-19.28,401.87,917.56,472.5,-542.5,227.5
-19.03,402.11,917.2,-210.0,-437.5,-140.0
-18.79,402.23,917.2,-490.0,-367.5,-122.5
-18.54,402.11,917.56,35.0,-665.0,-140.0
-18.3,401.99,917.81,472.5,-787.5,-87.5
-18.06,401.99,917.93,245.0,-315.0,-210.0
-18.06,401.99,917.93,52.5,-245.0,-437.5
-18.54,401.99,917.68,35.0,-595.0,-437.5
-19.15,401.87,917.56,17.5,-420.0,-52.5
-19.76,401.87,917.32,-315.0,-122.5,262.5
-20.62,401.62,917.2,-647.5,-350.0,402.5
-21.47,401.5,917.44,-385.0,-490.0,945.0
-21.96,401.14,917.81,-175.0,105.0,1540.0
-21.84,401.14,917.93,-472.5,87.5,1750.0
-21.35,401.01,918.17,-227.5,-770.0,1330.0
-20.5,401.14,918.66,455.0,-1050.0,1120.0
-19.52,401.38,919.03,367.5,-455.0,910.0
-18.54,401.75,919.15,-437.5,-175.0,385.0
-17.81,401.87,919.64,-385.0,-840.0,-332.5
-17.32,401.62,920.37,577.5,-1225.0,-525.0
-17.08,401.5,920.61,997.5,-682.5,-402.5
-17.08,401.38,920.37,735.0,-612.5,-455.0
-17.2,401.26,920.12,665.0,-1137.5,-560.0
-17.57,400.89,919.88,472.5,-630.0,-175.0
-17.93,400.77,919.64,70.0,367.5,280.0
-18.06,400.65,919.51,-52.5,-315.0,315.0
-18.06,400.65,919.76,455.0,-1050.0,227.5
-17.81,400.65,920.37,612.5,-157.5,472.5
-17.45,400.89,920.61,577.5,700.0,542.5
-17.08,401.14,920.49,840.0,-262.5,-17.5
-16.84,401.14,920.25,1067.5,-962.5,-472.5
-16.71,401.01,919.88,630.0,-105.0,-350.0
-16.84,400.89,919.39,297.5,490.0,122.5
-16.71,400.89,918.78,402.5,122.5,227.5
-16.35,401.26,918.17,-262.5,-297.5,-245.0
-16.23,401.75,918.17,-875.0,-507.5,-857.5
-16.23,401.87,918.54,-350.0,-752.5,-962.5
-16.35,401.62,919.39,245.0,-175.0,-700.0
-16.71,401.38,919.76,455.0,542.5,-420.0
-17.08,401.01,919.76,647.5,-157.5,-402.5
-17.32,400.65,919.76,735.0,-682.5,-402.5
-17.57,400.4,919.64,752.5,-350.0,17.5
-17.81,400.4,919.51,192.5,385.0,245.0
-17.81,400.65,919.15,0.0,-17.5,17.5
-17.81,400.89,919.15,17.5,-892.5,-437.5
-17.93,400.77,919.51,-297.5,140.0,-367.5
-18.18,400.53,919.88,-17.5,542.5,175.0
-18.3,400.53,919.88,1137.5,-630.0,122.5
-18.18,400.65,919.64,1120.0,-1102.5,-262.5
-18.18,400.77,919.39,-105.0,367.5,-210.0
-18.3,400.89,919.15,-367.5,507.5,122.5
-18.18,401.01,918.9,472.5,-1015.0,-70.0
-17.93,401.38,918.78,332.5,-1260.0,-577.5
-17.81,401.5,918.9,-647.5,315.0,-612.5
-18.18,401.26,919.15,52.5,-35.0,-210.0
-18.42,401.14,919.15,840.0,-1470.0,-297.5
-18.54,401.14,919.15,402.5,-927.5,-367.5
-18.79,401.14,919.15,-280.0,262.5,0.0
-19.03,401.14,919.03,17.5,-420.0,35.0
-19.03,401.14,918.9,560.0,-1260.0,-70.0
-19.03,401.14,918.9,105.0,-875.0,-87.5
-18.91,401.14,918.78,-192.5,-525.0,-52.5
-18.91,401.01,918.9,35.0,-910.0,-70.0
-18.67,400.89,919.15,437.5,-787.5,70.0
-18.42,400.89,919.39,52.5,122.5,227.5
-18.18,400.89,919.64,-35.0,157.5,52.5
-18.06,400.89,919.64,682.5,-647.5,-262.5
-18.3,401.01,919.39,752.5,-612.5,-87.5
-18.3,401.01,918.9,35.0,-140.0,35.0
-18.3,401.01,918.54,-210.0,-892.5,-245.0
-18.3,400.89,918.66,87.5,-1155.0,-332.5
-18.3,400.89,918.9,-245.0,-52.5,52.5
-18.3,400.77,919.27,-245.0,-52.5,70.0
-18.3,400.65,919.51,455.0,-857.5,-157.5
-18.3,400.65,919.76,665.0,-770.0,-17.5
-18.3,400.53,919.76,385.0,-87.5,87.5
-18.3,400.4,919.64,385.0,-297.5,105.0
-18.3,400.4,919.27,437.5,-332.5,262.5
-18.06,400.65,918.78,-192.5,-192.5,175.0
-17.81,401.14,918.42,-507.5,-945.0,-262.5
-17.57,401.38,918.78,-490.0,-1032.5,-700.0
-17.57,401.38,919.64,-210.0,-472.5,-420.0
-17.57,401.01,920.37,840.0,-507.5,-87.5
-17.57,400.89,920.73,1190.0,-472.5,-35.0
-17.57,400.65,920.61,927.5,-157.5,87.5
-17.69,400.53,920.12,560.0,-455.0,122.5
-17.57,400.53,919.88,472.5,-875.0,-87.5
-17.32,400.65,919.64,210.0,-770.0,-367.5
-17.32,400.65,919.64,-70.0,-647.5,-420.0
-17.2,400.65,919.76,367.5,-805.0,-437.5
-17.32,400.65,919.88,402.5,-455.0,-227.5
-17.32,400.65,919.88,315.0,-157.5,-140.0
-17.32,400.65,920.0,332.5,157.5,-210.0
-17.32,400.65,919.88,245.0,-35.0,-140.0
-17.57,400.65,919.76,262.5,-385.0,-105.0
-17.57,400.77,919.76,-17.5,-542.5,-227.5
-17.69,400.77,920.25,490.0,-997.5,-140.0
-17.57,400.65,920.73,1015.0,-647.5,-87.5
-17.45,400.65,920.73,945.0,-140.0,-35.0
-17.32,400.77,920.49,385.0,-105.0,-245.0
-17.32,400.77,920.37,507.5,-525.0,-367.5
-17.45,400.77,920.25,647.5,-367.5,-210.0
-17.57,400.89,919.88,297.5,35.0,0.0
-17.93,401.01,919.51,-17.5,-525.0,-140.0
-18.18,400.89,919.39,122.5,-1102.5,-157.5
-18.54,400.77,919.64,157.5,-840.0,227.5
-18.54,400.65,920.0,35.0,-332.5,437.5
-18.42,400.65,920.37,227.5,-437.5,280.0
-18.3,400.53,920.86,770.0,-245.0,402.5
-18.3,400.53,920.98,647.5,210.0,542.5
-18.06,400.65,920.61,752.5,35.0,472.5
-17.93,400.77,920.12,787.5,-262.5,420.0
-17.57,401.01,919.64,315.0,-577.5,210.0
-17.32,401.38,919.15,157.5,-875.0,-122.5
-17.32,401.5,918.9,-157.5,-910.0,-52.5
-17.08,401.38,918.9,-560.0,-245.0,35.0
-16.84,401.38,919.15,-315.0,-350.0,-17.5
-16.71,401.26,919.39,-17.5,-595.0,-122.5
-16.71,401.14,919.64,-262.5,-122.5,17.5
-16.84,401.01,920.0,-122.5,-17.5,0.0
-16.96,400.77,920.37,560.0,-630.0,-70.0
-17.08,400.53,920.73,875.0,-507.5,175.0
-16.96,400.53,920.61,822.5,315.0,560.0
-16.84,400.89,920.12,262.5,210.0,332.5
-16.47,401.38,919.76,-175.0,-560.0,-245.0
-16.23,401.62,919.88,-385.0,-770.0,-612.5
-16.1,401.5,920.37,210.0,-472.5,-490.0
-16.23,401.38,920.73,647.5,-157.5,-192.5
-16.1,401.26,920.86,752.5,-87.5,-175.0
-16.23,401.01,920.61,630.0,-297.5,-332.5
-16.47,400.89,920.49,595.0,-700.0,-350.0
-16.59,400.89,920.37,437.5,-455.0,-262.5
-16.84,400.77,920.37,280.0,17.5,0.0
-16.96,400.65,920.25,157.5,-70.0,70.0
-16.84,400.65,920.37,262.5,-472.5,-87.5
-16.84,400.65,920.61,420.0,-17.5,-35.0
-16.96,400.65,920.73,367.5,700.0,245.0
-16.96,400.89,920.37,560.0,122.5,70.0
-16.96,401.01,919.88,910.0,-1120.0,-122.5
-16.71,401.38,919.39,420.0,-892.5,-280.0
-16.59,401.5,919.15,-17.5,-402.5,-332.5
-16.59,401.62,919.15,-262.5,-35.0,-315.0
-16.59,401.62,919.03,0.0,-822.5,-367.5
-16.59,401.62,919.15,-140.0,-945.0,-665.0
-16.59,401.38,919.88,-52.5,-455.0,-647.5
-16.84,401.14,920.37,717.5,52.5,-157.5
-17.2,401.01,920.25,752.5,-35.0,70.0
-17.45,401.26,919.64,542.5,-1015.0,-157.5
-17.57,401.38,919.39,-210.0,-927.5,-350.0
-17.69,401.38,919.39,-402.5,-280.0,-105.0
-17.81,401.14,919.64,-70.0,-595.0,157.5
-17.81,401.01,920.0,17.5,-752.5,-70.0
-17.81,400.89,920.49,280.0,-665.0,87.5
-17.57,400.77,921.1,420.0,-122.5,105.0
-17.45,400.77,921.47,507.5,367.5,210.0
-17.45,400.89,921.34,927.5,105.0,350.0
-17.32,401.14,920.86,507.5,-87.5,157.5
-17.32,401.26,920.37,560.0,-840.0,-350.0
-17.32,401.26,919.88,1015.0,-1785.0,-280.0
-17.32,401.26,919.64,-52.5,-385.0,-105.0
-17.32,401.14,919.64,-700.0,787.5,280.0
-17.32,401.14,919.76,-192.5,-280.0,87.5
-17.2,401.14,920.0,595.0,-1295.0,-245.0
-17.08,401.01,920.37,245.0,-17.5,35.0
-17.08,400.89,920.73,-70.0,787.5,297.5
-16.96,400.89,920.98,787.5,-560.0,52.5
-16.71,400.89,921.1,1242.5,-1207.5,-262.5
-16.59,401.01,921.1,682.5,-192.5,-140.0
-16.47,401.14,920.86,17.5,612.5,-17.5
-16.59,401.01,920.61,332.5,-52.5,-245.0
-16.71,400.89,920.37,857.5,-437.5,-122.5
-16.84,401.01,919.88,752.5,-367.5,-52.5
-16.84,401.38,919.15,-192.5,-402.5,-227.5
-16.84,401.5,918.78,-612.5,-910.0,-402.5
-16.84,401.62,919.15,-210.0,-1172.5,-420.0
-16.84,401.62,919.64,-122.5,-910.0,-455.0
-16.96,401.62,920.37,70.0,-210.0,-175.0
-16.96,401.38,920.98,490.0,87.5,17.5
-17.08,401.26,921.34,875.0,-297.5,-140.0
-17.32,401.01,921.47,1032.5,-35.0,-70.0
-17.45,400.89,921.22,787.5,157.5,245.0
-17.45,401.01,920.73,630.0,-350.0,17.5
-17.57,401.14,920.25,507.5,-857.5,-210.0
-17.45,401.14,919.88,87.5,-577.5,70.0
-17.2,401.14,920.0,-455.0,332.5,87.5
-17.08,401.26,920.12,140.0,-402.5,-35.0
-16.84,401.38,920.12,717.5,-910.0,-175.0
-16.84,401.5,920.12,70.0,332.5,-52.5
-16.84,401.75,919.88,0.0,192.5,70.0
-16.71,401.99,919.51,87.5,-1050.0,-507.5
-16.84,402.23,919.39,0.0,-1137.5,-735.0
-16.96,402.11,919.64,-385.0,-630.0,-402.5
-17.2,401.87,920.12,-350.0,-87.5,-105.0
-17.32,401.62,920.73,577.5,-262.5,70.0
-17.32,401.62,920.98,665.0,-332.5,-17.5
-17.45,401.62,920.86,315.0,-245.0,-70.0
-17.57,401.5,920.98,402.5,-175.0,0.0
-17.57,401.5,920.98,577.5,-122.5,175.0
-17.57,401.62,920.61,472.5,-210.0,175.0
-17.69,401.62,920.37,-17.5,-525.0,-122.5
-17.69,401.62,920.37,140.0,-927.5,-105.0
-17.57,401.5,920.61,402.5,-630.0,35.0
-17.32,401.5,920.73,350.0,-647.5,35.0
-17.2,401.62,920.86,350.0,-577.5,-105.0
-17.2,401.75,920.86,472.5,-262.5,17.5
-17.2,401.87,920.86,-35.0,297.5,192.5
-17.2,401.87,920.86,35.0,-332.5,17.5
-17.32,401.87,920.86,472.5,-717.5,-140.0
-17.45,401.99,920.98,350.0,-245.0,52.5
-17.57,401.99,921.1,280.0,-17.5,227.5
-17.45,401.99,921.1,490.0,-612.5,157.5
-17.32,401.87,921.34,717.5,-350.0,192.5
-17.08,401.87,921.34,262.5,35.0,140.0
-16.84,402.11,921.59,350.0,0.0,-122.5
-16.59,401.99,921.71,525.0,52.5,-227.5
-16.59,401.99,921.71,805.0,157.5,-52.5
-16.59,402.11,921.34,735.0,-52.5,-192.5
-16.59,402.23,920.86,175.0,-507.5,-577.5
-16.71,402.11,920.73,157.5,-122.5,-525.0
-17.2,402.11,920.73,525.0,105.0,-105.0
-17.45,402.23,920.25,297.5,-595.0,0.0
-17.69,402.48,920.12,-245.0,-1207.5,-297.5
-17.81,402.36,920.73,-192.5,-892.5,-122.5
-17.81,402.11,921.59,350.0,-70.0,332.5
-17.69,402.11,922.32,857.5,210.0,245.0
-17.57,401.99,922.44,1137.5,105.0,87.5
-17.69,401.87,922.32,927.5,490.0,297.5
-17.93,401.87,921.83,910.0,332.5,350.0
-18.06,401.87,921.1,717.5,-245.0,227.5
-18.06,401.87,920.73,420.0,-367.5,297.5
-18.06,401.99,920.37,-122.5,-227.5,140.0
-17.93,402.11,920.49,-210.0,-367.5,-87.5
-18.06,402.11,920.73,175.0,-105.0,0.0
-18.06,402.11,921.1,227.5,192.5,245.0
-17.93,402.11,921.34,875.0,-175.0,105.0
-17.93,402.23,921.34,1207.5,-350.0,70.0
-17.93,402.48,920.86,682.5,122.5,105.0
-18.06,402.6,920.12,367.5,-315.0,52.5
-18.18,402.84,919.51,350.0,-1172.5,-17.5
-18.06,403.09,919.15,-157.5,-1190.0,-297.5
-18.06,402.97,919.39,-455.0,-542.5,-472.5
-18.3,402.6,919.76,35.0,-70.0,-87.5
-18.67,402.36,920.0,297.5,87.5,420.0
-18.91,402.23,920.12,122.5,-17.5,402.5
-19.28,402.23,920.25,192.5,-87.5,507.5
-19.4,402.11,920.25,402.5,87.5,770.0
-19.52,402.11,920.12,87.5,-70.0,875.0
-19.15,402.23,920.25,0.0,-210.0,647.5
-18.79,402.23,920.61,192.5,0.0,560.0
-18.54,402.48,920.61,350.0,70.0,455.0
-18.3,402.6,920.49,385.0,-52.5,192.5
-18.06,402.6,920.37,192.5,-192.5,70.0
-17.93,402.6,920.37,140.0,-192.5,-17.5
-17.81,402.6,920.37,175.0,-280.0,-122.5
-17.69,402.48,920.37,210.0,-542.5,-245.0
-17.57,402.36,920.61,385.0,-542.5,-175.0
-17.57,402.36,920.73,367.5,-315.0,-70.0
-17.57,402.36,920.61,315.0,140.0,-17.5
-17.57,402.6,920.37,542.5,-245.0,-87.5
-17.57,402.6,919.76,157.5,-822.5,-455.0
-17.81,402.48,919.64,-280.0,-542.5,-455.0
-18.06,402.23,919.76,140.0,-122.5,87.5
-18.18,402.11,919.76,367.5,-280.0,245.0
-18.06,402.48,919.64,-17.5,-1085.0,-245.0
-17.81,402.72,919.88,-175.0,-1067.5,-577.5
-17.81,402.72,920.37,280.0,-455.0,-367.5
-18.06,402.6,920.73,420.0,157.5,-227.5
-18.3,402.36,920.61,490.0,35.0,-192.5
-18.54,402.11,920.25,420.0,-507.5,-87.5
-18.79,401.87,919.88,105.0,-507.5,35.0
-18.79,401.62,919.76,140.0,-367.5,157.5
-18.67,401.87,919.76,-35.0,-315.0,87.5
-18.42,401.99,919.88,-367.5,-262.5,-122.5
-18.3,402.11,920.25,-192.5,-262.5,-245.0
-18.18,402.11,920.73,140.0,-350.0,-297.5
-18.18,401.87,920.98,577.5,-175.0,-122.5
-18.06,401.87,920.98,735.0,122.5,105.0
-17.93,402.11,920.49,612.5,17.5,-122.5
-18.06,402.36,919.76,157.5,-560.0,-455.0
-18.3,402.48,919.15,-350.0,-927.5,-542.5
-18.54,402.48,919.27,-472.5,-892.5,-455.0
-18.54,402.36,919.51,-297.5,-612.5,-315.0
-18.54,402.36,920.0,-175.0,-315.0,-350.0
-18.67,402.23,920.37,210.0,-367.5,-332.5
-19.03,402.11,920.73,280.0,-280.0,-140.0
-19.28,401.99,920.86,350.0,-122.5,105.0
-19.52,401.99,920.61,350.0,-192.5,210.0
-19.64,401.87,920.37,52.5,-472.5,192.5
-19.52,401.87,920.49,-35.0,-630.0,105.0
-19.4,401.75,920.73,-70.0,-612.5,87.5
-19.15,401.75,921.1,157.5,-210.0,157.5
-19.03,401.75,921.34,402.5,87.5,280.0
-19.03,402.11,920.98,402.5,-157.5,210.0
-18.91,402.36,920.37,105.0,-315.0,-87.5
-18.79,402.48,919.88,-297.5,-402.5,-157.5
-18.79,402.36,919.76,-262.5,-892.5,-245.0
-18.79,402.11,919.88,-350.0,-1102.5,-245.0
-18.67,401.87,920.49,-420.0,-822.5,-350.0
-18.54,401.62,921.47,297.5,-612.5,-192.5
-18.42,401.26,922.2,770.0,-192.5,-87.5
-18.3,401.14,922.44,910.0,87.5,-70.0
-18.42,400.89,922.2,682.5,175.0,-157.5
-18.79,400.89,921.47,665.0,-157.5,105.0
-18.91,401.01,920.61,-87.5,52.5,157.5
-19.03,401.26,920.25,-700.0,-612.5,-122.5
-18.79,401.38,920.61,-420.0,-1085.0,-420.0
-18.79,401.38,921.47,35.0,-402.5,-210.0
-18.79,401.26,922.08,542.5,367.5,140.0
-18.67,401.38,922.08,1032.5,-437.5,-87.5
-18.67,401.5,921.59,1085.0,-1032.5,-542.5
-18.79,401.26,920.98,525.0,-402.5,-297.5
-18.91,401.01,920.37,-262.5,437.5,210.0
-19.03,401.01,919.76,-472.5,-332.5,105.0
-18.91,401.26,919.51,-350.0,-1312.5,-280.0
-18.79,401.38,919.64,-997.5,-647.5,-385.0
-18.67,401.26,920.37,-857.5,-140.0,-262.5
-18.79,400.89,921.1,315.0,-630.0,-122.5
-18.67,400.65,921.59,735.0,-682.5,35.0
-18.3,400.65,921.59,332.5,192.5,-52.5
-18.18,400.89,921.34,227.5,-122.5,-245.0
-18.06,401.14,921.1,210.0,-910.0,-647.5
-18.06,401.26,920.98,-297.5,-717.5,-875.0
-18.3,401.14,921.22,-420.0,-560.0,-630.0
-18.3,400.77,921.83,175.0,-490.0,-525.0
-18.3,400.53,922.44,577.5,-280.0,-472.5
-18.67,400.4,922.81,700.0,-122.5,-420.0
-19.03,400.16,922.56,1015.0,-297.5,-122.5
-19.28,400.16,922.08,560.0,105.0,210.0
-19.28,400.16,921.59,17.5,192.5,227.5
-19.28,400.28,921.1,-87.5,-455.0,-175.0
-19.4,400.28,921.1,-105.0,-542.5,-262.5
-19.52,399.92,921.34,-70.0,-17.5,122.5
-19.52,399.79,921.47,332.5,140.0,472.5
-19.4,399.67,921.34,525.0,-315.0,210.0
-19.03,399.79,920.98,262.5,-682.5,-262.5
-18.91,399.92,920.61,-227.5,-560.0,-385.0
-18.79,399.79,920.61,-577.5,-297.5,-420.0
-18.91,399.67,920.86,-420.0,-227.5,-245.0
-18.91,399.67,921.22,-437.5,455.0,-70.0
-18.79,399.67,921.59,-227.5,210.0,-297.5
-18.79,399.67,921.83,472.5,-1032.5,-560.0
-19.03,399.79,922.32,735.0,-770.0,-507.5
-19.15,399.67,922.32,332.5,350.0,-210.0
-19.64,399.55,922.08,735.0,192.5,175.0
-19.76,399.67,921.34,787.5,-717.5,87.5
-20.01,399.92,920.49,-490.0,-472.5,-122.5
-20.25,399.79,920.12,-1207.5,-577.5,-122.5
-20.37,399.67,920.61,-402.5,-997.5,-17.5
-20.37,399.43,921.22,35.0,-665.0,262.5
-20.37,399.43,921.59,-245.0,-332.5,367.5
-20.37,399.18,922.2,262.5,-525.0,280.0
-20.37,399.06,922.44,892.5,-420.0,472.5
-20.37,398.94,922.2,402.5,-192.5,542.5
-20.37,398.94,921.59,297.5,-1190.0,350.0
-20.01,398.94,921.22,385.0,-1977.5,87.5
-19.64,399.18,921.34,-245.0,-1120.0,-70.0
-19.28,399.18,922.08,-857.5,332.5,-70.0
-19.15,398.94,922.81,-210.0,490.0,140.0
-18.91,398.82,923.3,577.5,262.5,280.0
-18.79,398.94,923.54,735.0,332.5,140.0
-18.67,398.94,923.17,630.0,-17.5,-140.0
-18.79,399.06,922.81,595.0,-525.0,-297.5
-19.03,399.18,922.44,542.5,-682.5,-175.0
-19.03,399.18,922.2,262.5,-507.5,-35.0
-19.15,399.18,922.08,-157.5,-157.5,17.5
-19.15,399.06,922.08,-105.0,-105.0,52.5
-19.03,398.94,922.08,105.0,-315.0,-35.0
-18.91,398.82,922.2,577.5,-735.0,-210.0
-19.03,398.94,922.08,577.5,-892.5,-210.0
-19.15,398.94,921.95,157.5,-420.0,-175.0
-19.28,398.94,921.71,-297.5,17.5,35.0
-19.52,398.82,921.59,-175.0,-402.5,245.0
-19.52,398.7,921.59,-122.5,-700.0,262.5
-19.4,398.57,921.83,-262.5,-297.5,280.0
-19.15,398.45,922.32,0.0,-297.5,175.0
-19.03,398.45,922.81,455.0,-542.5,17.5
-19.03,398.45,923.05,630.0,-175.0,157.5
-18.79,398.45,922.81,280.0,262.5,402.5
-18.54,398.45,922.56,210.0,-560.0,35.0
-18.54,398.7,922.32,367.5,-962.5,-472.5
-18.54,398.57,922.32,-157.5,70.0,0.0
-18.54,398.57,922.08,-385.0,175.0,70.0
-18.54,398.33,922.2,507.5,-1225.0,-297.5
-18.67,398.21,922.32,770.0,-1155.0,-105.0
-18.67,398.21,922.2,-87.5,420.0,175.0
-18.79,398.45,921.71,-420.0,-402.5,17.5
-18.91,398.45,921.71,-350.0,-1750.0,-350.0
-18.79,398.33,922.32,-402.5,-735.0,-157.5
-18.79,398.09,923.17,-52.5,455.0,420.0
-18.67,398.09,923.66,752.5,-280.0,262.5
-18.3,398.21,923.91,857.5,-875.0,-280.0
-18.18,397.96,924.27,752.5,-175.0,-140.0
-18.06,397.96,924.27,1032.5,297.5,227.5
-18.06,397.96,923.66,840.0,-385.0,-105.0
-17.81,398.09,923.05,455.0,-1015.0,-612.5
-17.81,398.09,922.81,35.0,-577.5,-595.0
-17.81,397.96,922.93,35.0,-297.5,-437.5
-18.06,397.84,923.05,297.5,-507.5,-262.5
-18.3,397.72,922.93,245.0,-350.0,-105.0
-18.42,397.72,922.93,87.5,-105.0,-122.5
-18.67,397.72,922.81,385.0,-280.0,-17.5
-18.79,397.96,922.56,472.5,-857.5,0.0
-19.03,397.96,922.08,297.5,-1207.5,-17.5
-19.03,397.96,921.83,140.0,-1120.0,17.5
-18.79,397.96,921.83,-437.5,-560.0,-35.0
-18.79,397.96,922.32,-525.0,-262.5,-175.0
-18.79,397.72,923.05,227.5,-437.5,105.0
-18.79,397.6,923.3,595.0,-227.5,385.0
-18.54,397.72,923.3,595.0,-367.5,262.5
-18.42,397.96,923.05,735.0,-962.5,-192.5
-18.42,397.96,922.81,525.0,-1137.5,-262.5
-18.54,397.84,922.69,210.0,-857.5,-70.0
-18.42,397.72,922.81,-262.5,-210.0,52.5
-18.3,397.6,923.05,-192.5,210.0,332.5
-18.18,397.6,923.3,192.5,0.0,227.5
-18.06,397.6,923.54,402.5,-367.5,-87.5
-17.93,397.72,923.66,682.5,-630.0,-105.0
-17.81,397.72,923.66,927.5,-577.5,-17.5
-17.69,397.84,923.42,700.0,-700.0,-87.5
-17.57,397.96,923.3,105.0,-315.0,-297.5
-17.81,397.84,923.3,-297.5,262.5,-70.0
-17.93,397.6,923.3,140.0,122.5,157.5
-17.81,397.48,923.3,525.0,-332.5,105.0
-17.93,397.6,923.3,507.5,-490.0,-17.5
-17.93,397.6,923.17,490.0,-525.0,0.0
-17.93,397.6,923.05,507.5,-752.5,-17.5
-17.81,397.72,923.05,315.0,-700.0,35.0
-17.57,397.84,923.05,175.0,-70.0,52.5
-17.32,397.84,923.05,70.0,227.5,17.5
-17.08,397.96,923.3,140.0,-35.0,-245.0
-17.08,397.84,923.3,542.5,-70.0,-420.0
-17.2,397.72,923.3,997.5,-245.0,-140.0
-17.45,397.84,922.56,840.0,-245.0,35.0
-17.57,398.21,921.83,87.5,-927.5,-280.0
-17.81,398.33,921.34,-437.5,-1172.5,-332.5
-17.81,398.33,921.83,-910.0,-595.0,-122.5
-17.69,398.33,922.81,-542.5,-175.0,0.0
-17.57,398.09,923.78,612.5,-437.5,122.5
-17.45,397.96,924.52,1312.5,-332.5,157.5
-17.32,397.96,924.52,1365.0,-70.0,35.0
-17.32,397.96,924.27,1277.5,-437.5,-227.5
-17.32,397.96,923.91,1085.0,-262.5,-192.5
-17.32,397.96,923.42,490.0,560.0,122.5
-17.32,398.21,922.56,35.0,332.5,70.0
-17.32,398.21,922.08,-122.5,-822.5,-367.5
-17.32,398.21,922.32,105.0,-910.0,-420.0
-17.32,398.09,922.81,332.5,17.5,-105.0
-17.32,398.09,923.05,770.0,0.0,-52.5
-17.45,398.21,922.69,1067.5,-945.0,-140.0
-17.57,398.45,922.32,612.5,-980.0,-350.0
-17.81,398.7,922.2,-367.5,-105.0,-297.5
-18.18,398.45,922.44,52.5,-227.5,-35.0
-18.3,398.21,922.69,910.0,-665.0,210.0
-18.3,398.21,922.93,665.0,-315.0,297.5
-18.18,398.21,923.05,262.5,70.0,157.5
-18.18,398.33,923.3,682.5,17.5,122.5
-18.18,398.33,923.17,822.5,0.0,227.5
-18.18,398.45,922.81,700.0,-175.0,210.0
-18.3,398.7,922.44,525.0,-402.5,-35.0
-18.3,398.7,922.08,262.5,-717.5,17.5
-18.42,398.7,922.08,210.0,-612.5,52.5
-18.42,398.7,922.08,280.0,-385.0,227.5
-18.42,398.7,922.08,227.5,-490.0,245.0
-18.42,398.7,922.32,105.0,-210.0,210.0
-18.54,398.7,922.32,210.0,-35.0,245.0
-18.54,398.7,922.08,455.0,-507.5,192.5
-18.67,398.7,921.83,630.0,-770.0,227.5
-18.54,398.82,921.59,70.0,-297.5,280.0
-18.42,398.94,921.71,70.0,-612.5,227.5
-18.18,399.06,921.83,437.5,-1050.0,105.0
-17.81,399.31,922.32,-17.5,-297.5,35.0
-17.69,399.43,922.93,52.5,542.5,87.5
-17.69,399.18,923.3,612.5,70.0,157.5
-17.57,399.06,923.54,980.0,-245.0,17.5
-17.45,398.94,923.66,1067.5,140.0,122.5
-17.57,398.94,923.3,840.0,350.0,245.0
-17.45,398.94,922.81,682.5,-280.0,105.0
-17.2,399.18,922.44,437.5,-385.0,-210.0
-17.08,399.31,922.32,297.5,-402.5,-455.0
-16.96,399.43,922.2,630.0,-647.5,-612.5
-17.2,399.43,921.95,542.5,-542.5,-630.0
-17.57,399.18,921.83,52.5,192.5,-192.5
-17.81,399.06,921.71,122.5,210.0,122.5
-18.06,399.31,921.59,157.5,-665.0,-35.0
-18.06,399.55,921.83,-210.0,-595.0,-140.0
-18.18,399.79,922.56,-245.0,332.5,140.0
-18.18,399.79,923.3,840.0,35.0,210.0
-18.06,399.92,923.42,1732.5,-525.0,0.0
-17.93,399.92,923.05,1277.5,87.5,-122.5
-18.18,399.79,922.08,560.0,420.0,35.0
-18.42,399.43,921.1,-105.0,-52.5,140.0
-18.54,399.18,920.73,-507.5,-437.5,87.5
-18.3,399.18,920.98,-227.5,-350.0,122.5
-18.18,399.31,921.1,157.5,-157.5,157.5
-18.06,399.67,921.1,297.5,-262.5,-122.5
-17.93,399.92,920.61,192.5,-997.5,-437.5
-17.57,400.04,920.37,-332.5,-822.5,-682.5
-17.45,399.92,920.49,-472.5,-140.0,-665.0
-17.45,399.67,920.61,-175.0,-315.0,-700.0
-17.69,399.67,920.98,-122.5,-647.5,-735.0
-17.93,399.55,921.47,157.5,-385.0,-525.0
-18.3,399.55,921.83,297.5,-35.0,-350.0
-18.79,399.43,922.08,140.0,227.5,-297.5
-19.15,399.18,922.2,262.5,52.5,-245.0
-19.64,398.94,922.2,560.0,-157.5,87.5
-19.89,398.82,921.95,717.5,-157.5,315.0
-20.13,398.82,921.59,350.0,210.0,560.0
-20.01,398.94,921.22,-210.0,140.0,402.5
-19.76,399.18,921.1,-105.0,-525.0,-35.0
-19.76,399.31,921.22,52.5,-857.5,-70.0
-19.52,399.31,921.47,-122.5,-332.5,105.0
-19.4,399.18,921.83,-17.5,52.5,52.5
-19.28,399.18,921.95,595.0,-577.5,-140.0
-19.15,399.31,921.83,402.5,-542.5,-227.5
-19.15,399.43,921.71,-105.0,-245.0,-280.0
-19.4,399.18,921.59,-52.5,-350.0,-175.0
-19.64,399.18,921.59,87.5,-542.5,122.5
-19.64,399.18,921.59,140.0,-595.0,52.5
-19.76,399.18,921.71,297.5,-927.5,-157.5
-20.01,399.06,921.83,192.5,-490.0,70.0
-20.25,398.94,921.95,-70.0,280.0,490.0
-20.13,398.94,921.83,35.0,-35.0,525.0
-19.89,398.94,921.71,87.5,-402.5,297.5
-19.76,399.06,921.47,-385.0,17.5,175.0
-19.64,399.18,921.47,-332.5,-437.5,0.0
-19.52,399.06,921.59,122.5,-1155.0,-175.0
-19.28,399.18,921.59,-35.0,-472.5,-175.0
-19.28,399.18,921.47,-700.0,70.0,-17.5
-19.28,399.06,921.34,-1102.5,52.5,-140.0
-19.52,398.57,921.59,-857.5,52.5,0.0
-19.64,398.21,921.83,210.0,-507.5,297.5
-19.64,398.33,921.71,367.5,-752.5,210.0
-19.4,398.7,921.83,-542.5,-472.5,-52.5
-19.28,398.94,922.08,-735.0,-717.5,-297.5
-19.28,398.94,922.69,-35.0,-1172.5,-297.5
-19.4,398.7,923.05,52.5,-192.5,-105.0
-19.52,398.21,923.05,122.5,297.5,192.5
-19.89,397.72,922.69,507.5,-735.0,280.0
-19.89,397.48,922.32,437.5,-2170.0,297.5
-19.76,397.48,922.2,87.5,-1487.5,192.5
-19.4,397.48,922.32,-787.5,245.0,262.5
-19.15,397.48,922.44,-752.5,-210.0,140.0
-18.79,397.35,922.81,0.0,-1032.5,-297.5
-18.67,397.11,923.3,350.0,-892.5,-297.5
-18.54,396.99,923.54,962.5,-402.5,-17.5
-18.42,396.99,923.42,735.0,17.5,-35.0
-18.54,396.99,922.81,682.5,-542.5,-245.0
-18.54,397.23,922.08,52.5,-752.5,-280.0
-18.67,397.48,921.59,-577.5,-525.0,-280.0
-18.67,397.35,921.47,-1085.0,-280.0,-210.0
-18.67,397.23,922.08,-402.5,-962.5,-420.0
-18.79,396.99,922.81,490.0,-822.5,-385.0
-18.91,396.74,923.17,402.5,0.0,17.5
-19.03,396.5,923.3,52.5,577.5,227.5
-19.28,396.26,923.17,122.5,-262.5,227.5
-19.4,396.26,923.05,490.0,-822.5,262.5
-19.15,396.26,922.93,350.0,-367.5,157.5
-19.03,396.26,922.81,-87.5,17.5,70.0
-19.03,396.26,922.81,-70.0,-647.5,17.5
-18.79,396.13,922.93,175.0,-647.5,-35.0
-18.54,396.13,923.05,0.0,-52.5,52.5
-18.42,396.13,923.17,-17.5,-175.0,0.0
-18.18,396.13,923.3,262.5,-682.5,-385.0
-18.3,396.01,923.3,507.5,-717.5,-350.0
-18.42,396.01,923.05,437.5,-280.0,70.0
-18.42,396.13,922.81,-280.0,-192.5,-52.5
-18.54,396.01,922.69,-507.5,-682.5,-315.0
-18.79,395.77,923.05,-175.0,-402.5,-87.5
-19.03,395.52,923.42,420.0,-175.0,332.5
-19.03,395.52,923.17,682.5,-420.0,402.5
-19.03,395.65,922.93,70.0,-735.0,35.0
-19.03,395.52,923.05,-210.0,-542.5,-52.5
-19.03,395.28,923.3,87.5,-122.5,332.5
-18.79,395.04,923.42,157.5,175.0,595.0
-18.54,395.16,923.42,70.0,-280.0,280.0
-18.18,395.28,923.3,472.5,-962.5,-122.5
-17.81,395.4,923.05,647.5,-1225.0,-210.0
-17.45,395.4,922.93,332.5,-735.0,-332.5
-17.08,395.4,922.81,70.0,35.0,-315.0
-17.08,395.4,922.56,-175.0,0.0,-402.5
-17.08,395.28,922.56,0.0,-455.0,-735.0
-17.32,395.28,922.44,-35.0,-612.5,-560.0
-17.57,395.28,922.44,-297.5,-682.5,-367.5
-17.81,395.28,922.81,70.0,-1225.0,-647.5
-18.06,395.28,923.17,595.0,-1277.5,-542.5
-18.42,394.91,923.42,700.0,-875.0,-52.5
-18.67,394.67,923.3,385.0,-315.0,262.5
-18.79,394.43,923.3,122.5,52.5,420.0
-18.91,394.3,923.05,70.0,-122.5,490.0
-18.79,394.3,922.93,227.5,-735.0,385.0
-18.54,394.3,923.05,122.5,-315.0,227.5
-18.3,394.43,923.3,-35.0,-122.5,122.5
-18.18,394.43,923.42,280.0,-350.0,-35.0
-18.3,394.3,923.54,472.5,-735.0,157.5
-18.18,394.18,923.54,805.0,-735.0,350.0
-17.93,394.3,923.3,945.0,-560.0,367.5
-17.69,394.67,922.69,175.0,17.5,332.5
-17.45,395.04,922.08,-857.5,17.5,-70.0
-17.32,395.04,922.08,-857.5,-735.0,-490.0
-17.32,394.79,922.69,-105.0,-472.5,-157.5
-17.45,394.67,923.05,-17.5,315.0,367.5
-17.32,394.55,923.42,140.0,-262.5,52.5
-17.32,394.3,923.78,490.0,-752.5,-227.5
-17.32,394.18,924.15,805.0,-560.0,-35.0
-17.45,394.06,924.27,805.0,175.0,297.5
-17.32,394.18,923.91,227.5,577.5,315.0
-17.32,394.3,923.66,52.5,157.5,-35.0
-17.45,394.18,923.54,437.5,-507.5,-17.5
-17.45,394.06,923.54,437.5,-367.5,210.0
-17.32,393.94,923.54,210.0,52.5,385.0
-17.2,394.06,923.54,122.5,0.0,192.5
-17.08,394.06,923.78,157.5,122.5,-52.5
-16.96,394.06,923.91,647.5,70.0,35.0
-16.84,394.18,923.78,805.0,-192.5,-52.5
-16.84,394.3,923.42,735.0,-717.5,-332.5
-16.84,394.55,923.05,227.5,-560.0,-385.0
-16.96,394.43,923.05,-280.0,17.5,-175.0
-17.2,394.3,923.3,175.0,122.5,35.0
-17.32,394.3,923.3,682.5,-402.5,105.0
-17.32,394.43,922.81,367.5,-717.5,-175.0
-17.57,394.55,922.32,245.0,-1032.5,-332.5
-17.69,394.43,922.08,52.5,-665.0,-35.0
-17.81,394.3,921.83,-297.5,-525.0,122.5
-17.81,394.43,921.83,-420.0,-647.5,-87.5
-17.81,394.3,922.2,-507.5,-402.5,-52.5
-18.06,394.18,922.56,-157.5,-210.0,367.5
-17.93,394.18,922.81,0.0,-350.0,332.5
-17.81,394.18,922.93,367.5,-1312.5,-175.0
-17.69,394.18,923.05,717.5,-2065.0,-402.5
-17.57,394.06,923.3,595.0,-1505.0,-227.5
-17.45,393.94,923.54,297.5,-437.5,52.5
-17.32,394.06,923.54,105.0,-367.5,105.0
-16.96,394.18,923.54,-297.5,-17.5,-87.5
-16.84,394.06,923.78,-297.5,490.0,-70.0
-16.84,393.82,924.03,175.0,297.5,35.0
-16.96,393.94,923.91,717.5,-315.0,-122.5
-17.08,393.94,923.66,332.5,-612.5,-140.0
-17.2,394.06,923.54,-70.0,-682.5,35.0
-17.08,394.06,923.78,105.0,-595.0,35.0
-16.96,394.06,924.15,262.5,-1102.5,-175.0
-16.84,394.06,924.76,735.0,-1172.5,-315.0
-16.84,393.82,925.25,805.0,-175.0,-35.0
-16.71,393.69,925.61,980.0,577.5,385.0
-16.59,393.69,925.25,1242.5,35.0,280.0
-16.59,393.82,924.64,1102.5,-840.0,-175.0
-16.47,393.94,924.03,455.0,-822.5,-437.5
-16.47,393.94,923.42,280.0,-1067.5,-420.0
-16.47,394.06,923.05,297.5,-1435.0,-350.0
-16.35,394.06,923.05,-192.5,-770.0,-332.5
-16.35,393.82,923.42,-665.0,87.5,-52.5
-16.23,393.82,924.15,297.5,17.5,35.0
-16.23,393.82,924.52,1242.5,-105.0,-35.0
-16.35,394.06,924.27,910.0,52.5,70.0
-16.47,394.18,923.91,385.0,-87.5,17.5
-16.59,394.3,923.66,560.0,-647.5,-70.0
-16.47,394.43,923.42,560.0,-542.5,17.5
-16.35,394.55,923.05,-210.0,-17.5,-122.5
-16.23,394.43,923.05,-297.5,-17.5,-262.5
-16.23,394.3,923.17,472.5,-490.0,-157.5
-16.23,394.43,923.05,805.0,-875.0,-105.0
-16.1,394.55,922.93,367.5,-822.5,-280.0
-16.23,394.55,923.05,-17.5,-350.0,-367.5
-16.35,394.43,923.3,192.5,-52.5,-157.5
-16.47,394.3,923.42,297.5,-210.0,17.5
-16.59,394.3,923.54,245.0,-437.5,-87.5
-16.59,394.18,923.78,525.0,-332.5,17.5
-16.59,394.18,924.03,752.5,-192.5,192.5
-16.47,394.3,924.03,682.5,87.5,140.0
-16.35,394.43,923.78,700.0,-227.5,70.0
-16.35,394.55,923.3,490.0,-577.5,-122.5
-16.23,394.67,923.05,175.0,-595.0,-280.0
-16.35,394.67,922.93,70.0,-507.5,-210.0
-16.35,394.67,923.05,385.0,-402.5,-35.0
-16.35,394.67,923.17,192.5,52.5,192.5
-16.47,394.67,923.05,17.5,175.0,157.5
-16.47,394.67,923.05,70.0,-157.5,-17.5
-16.59,394.55,923.17,227.5,-122.5,35.0
-16.59,394.55,923.3,472.5,-192.5,175.0
-16.71,394.55,923.17,682.5,-472.5,192.5
-16.59,394.79,922.93,280.0,-577.5,52.5
-16.59,394.79,922.93,437.5,-472.5,-87.5
-16.71,394.79,922.69,630.0,-490.0,87.5
-16.71,394.79,922.44,105.0,-490.0,52.5
-16.59,394.79,922.44,-262.5,-140.0,17.5
-16.47,394.79,922.81,122.5,-140.0,157.5
-16.35,394.79,923.17,490.0,-192.5,70.0
-16.35,394.79,923.3,385.0,-70.0,70.0
-16.59,394.79,923.17,647.5,-367.5,87.5
-16.71,394.91,922.81,752.5,-822.5,52.5
-16.71,395.04,922.32,70.0,-822.5,-52.5
-16.84,394.91,922.32,210.0,-717.5,-105.0
-16.96,394.79,922.2,857.5,-945.0,140.0
-17.08,394.91,921.83,140.0,-437.5,472.5
-16.84,395.28,921.59,-910.0,175.0,437.5
-16.59,395.52,921.95,-647.5,-787.5,52.5
-16.23,395.52,922.69,332.5,-1417.5,-227.5
-15.74,395.52,923.66,665.0,-420.0,-87.5
-15.37,395.52,924.27,927.5,472.5,-70.0
-15.25,395.4,924.27,1225.0,17.5,-350.0
-15.37,395.28,924.03,1540.0,-350.0,-367.5
-15.62,395.16,923.3,840.0,297.5,-70.0
-15.74,395.04,922.69,280.0,350.0,70.0
-15.86,395.04,922.08,455.0,-17.5,-17.5
-15.98,395.04,921.59,52.5,-647.5,-210.0
-16.1,395.04,921.71,-87.5,-525.0,-262.5
-16.35,395.04,922.08,192.5,-140.0,87.5
-16.47,395.04,922.2,752.5,-192.5,385.0
-16.47,395.04,922.08,822.5,-262.5,245.0
-16.35,395.28,921.71,665.0,-472.5,70.0
-16.59,395.52,921.22,647.5,-910.0,52.5
-16.84,395.52,920.98,402.5,-840.0,227.5
-16.71,395.77,920.86,-17.5,-192.5,507.5
-16.59,396.01,920.86,-192.5,-122.5,245.0
-16.59,396.01,920.98,70.0,-507.5,-70.0
-16.71,395.77,921.22,612.5,-700.0,0.0
-16.96,395.65,921.34,402.5,-385.0,350.0
-17.2,395.52,921.34,227.5,-140.0,542.5
-17.2,395.52,921.34,262.5,-122.5,770.0
-17.08,395.65,921.47,262.5,-542.5,525.0
-16.59,395.77,921.71,332.5,-507.5,175.0
-16.59,395.77,922.08,402.5,-157.5,262.5
-16.47,395.65,922.2,525.0,52.5,455.0
-16.47,395.65,922.32,630.0,0.0,472.5
-16.47,395.65,922.32,787.5,-262.5,560.0
-16.23,395.77,922.2,1032.5,-455.0,525.0
-15.98,396.01,921.83,787.5,-472.5,297.5
-15.74,396.13,921.47,350.0,-70.0,140.0
-15.62,396.26,921.22,192.5,-17.5,210.0
-15.62,396.38,920.98,262.5,-647.5,105.0
-15.49,396.5,920.98,192.5,-665.0,-35.0
-15.62,396.5,921.1,245.0,-245.0,140.0
-15.62,396.5,921.22,455.0,-227.5,280.0
-15.49,396.62,921.1,507.5,-315.0,122.5
-15.37,396.74,920.98,210.0,-402.5,17.5
-15.25,396.74,921.1,-52.5,70.0,-70.0
-15.25,396.74,921.22,17.5,175.0,105.0
-15.25,396.62,921.34,245.0,-122.5,245.0
-14.88,396.74,921.34,507.5,-490.0,140.0
-14.52,396.87,921.47,507.5,-175.0,-35.0
-14.03,397.23,921.34,315.0,-525.0,-490.0
-13.91,397.48,921.1,455.0,-1207.5,-927.5
-13.91,397.48,920.98,402.5,-1242.5,-910.0
-14.03,397.23,920.86,472.5,-980.0,-787.5
-14.27,396.99,920.61,455.0,-665.0,-682.5
-14.64,396.87,920.37,-192.5,-385.0,-682.5
-15.37,396.87,920.12,-315.0,-647.5,-402.5
-15.86,396.99,920.37,-367.5,-437.5,-122.5
-16.23,396.99,920.86,-17.5,-350.0,-52.5
-16.59,396.74,921.34,367.5,-192.5,17.5
-17.08,396.5,921.71,735.0,-105.0,420.0
-17.32,396.01,921.71,1085.0,-52.5,910.0
-17.32,396.01,921.34,472.5,35.0,1102.5
-16.71,396.01,921.1,-140.0,-52.5,752.5
-15.98,396.01,921.34,35.0,-157.5,402.5
-15.25,396.26,921.59,332.5,-420.0,52.5
-14.64,396.38,921.83,332.5,-192.5,-227.5
-14.15,396.62,921.83,525.0,-17.5,-332.5
-13.66,396.74,921.83,577.5,-262.5,-630.0
-13.42,396.99,921.47,910.0,-752.5,-1050.0
-13.66,396.99,920.98,437.5,-385.0,-1242.5
-14.27,396.99,920.49,-70.0,-315.0,-997.5
-15.01,396.87,920.12,-157.5,-367.5,-490.0
-15.74,396.74,920.12,-402.5,-455.0,-140.0
-16.1,396.62,920.37,-105.0,-577.5,-35.0
-16.23,396.62,920.98,420.0,-665.0,-17.5
-16.35,396.5,921.22,507.5,-210.0,17.5
-16.59,396.38,921.34,227.5,437.5,262.5
-16.59,396.38,921.34,227.5,577.5,420.0
-16.47,396.38,920.98,175.0,70.0,245.0
-16.47,396.5,920.61,-35.0,-175.0,35.0
-16.47,396.5,920.61,-210.0,-122.5,245.0
-16.35,396.5,920.73,-210.0,-227.5,262.5
-15.86,396.5,921.22,-52.5,-367.5,-52.5
-15.62,396.5,921.83,157.5,315.0,-52.5
-15.37,396.38,922.2,525.0,367.5,17.5
-15.01,396.5,922.08,787.5,-192.5,-227.5
-14.76,396.74,921.59,490.0,-227.5,-560.0
-14.88,396.87,921.34,70.0,-52.5,-665.0
-15.25,396.99,920.98,35.0,-262.5,-630.0
-15.86,396.87,920.61,122.5,-507.5,-490.0
-16.35,396.74,920.37,-245.0,-350.0,-140.0
-16.71,396.5,920.37,-280.0,-525.0,-192.5
-17.2,396.38,920.61,-70.0,-665.0,-157.5
-17.57,396.01,920.86,-227.5,-70.0,280.0
-17.57,395.77,921.22,-87.5,245.0,612.5
-17.45,395.77,921.47,490.0,-402.5,490.0
-17.2,396.01,921.34,542.5,-490.0,297.5
-16.96,396.38,921.1,-367.5,385.0,87.5
-16.84,396.38,920.98,-350.0,-140.0,-122.5
-16.84,396.26,920.86,595.0,-1032.5,-262.5
-16.96,396.13,920.61,140.0,-315.0,70.0
-16.84,396.01,920.37,-402.5,52.5,227.5
-16.71,396.26,920.12,-157.5,-1032.5,-105.0
-16.59,396.38,920.12,-472.5,-1277.5,-402.5
-16.71,396.5,920.49,-1067.5,-367.5,-227.5
-16.84,396.5,921.1,-665.0,-472.5,-157.5
-17.08,396.13,921.83,490.0,-1365.0,-210.0
-17.2,395.77,922.2,647.5,-770.0,87.5
-17.2,395.52,922.32,367.5,420.0,542.5
-17.32,395.28,922.08,17.5,157.5,385.0
-17.32,395.16,921.95,17.5,-612.5,87.5
-17.45,395.04,922.08,-52.5,-315.0,420.0
-17.32,394.91,922.32,-17.5,52.5,577.5
-17.08,395.04,922.44,157.5,-245.0,245.0
-16.84,395.04,922.44,157.5,-420.0,-17.5
-16.84,395.04,922.56,-17.5,-105.0,105.0
-16.71,395.16,922.44,437.5,-420.0,140.0
-16.59,395.28,922.32,630.0,-805.0,17.5
-16.35,395.4,921.95,157.5,-525.0,-87.5
-16.23,395.65,921.83,-455.0,-35.0,-140.0
-16.23,395.77,921.71,-245.0,-472.5,-210.0
-16.23,395.65,921.59,-35.0,-910.0,-210.0
-16.23,395.52,921.71,-245.0,-857.5,-280.0
-16.23,395.4,922.08,-227.5,-630.0,-315.0
-16.35,395.28,922.32,297.5,-665.0,-175.0
-16.47,395.04,922.32,332.5,-717.5,0.0
-16.59,394.91,922.32,-402.5,-472.5,17.5
-16.71,394.79,922.44,-87.5,-560.0,52.5
-16.71,394.67,922.56,105.0,-647.5,122.5
-16.71,394.55,922.56,-157.5,-245.0,52.5
-16.71,394.43,922.81,-455.0,-140.0,70.0
-16.71,394.18,923.3,52.5,-437.5,175.0
-16.59,394.06,923.78,577.5,-350.0,245.0
-16.47,394.06,924.03,700.0,-262.5,175.0
-16.35,394.06,924.03,612.5,-280.0,87.5
-16.23,394.06,923.78,805.0,-332.5,70.0
-16.1,394.18,923.54,542.5,-385.0,35.0
-15.98,394.18,923.05,105.0,-595.0,-157.5
-15.98,394.18,922.93,52.5,-402.5,-157.5
-16.1,394.06,922.93,-87.5,367.5,332.5
-16.1,394.06,922.81,-70.0,87.5,245.0
-16.1,394.06,922.56,332.5,-1155.0,-227.5
-16.1,393.94,922.81,367.5,-1155.0,-297.5
-16.1,393.82,923.05,105.0,105.0,70.0
-16.23,393.69,923.05,297.5,140.0,350.0
-16.1,393.82,922.93,385.0,-770.0,87.5
-15.86,393.82,923.05,-52.5,-297.5,-87.5
-15.74,393.69,923.17,17.5,245.0,70.0
-15.74,393.69,923.3,525.0,87.5,105.0
-15.86,393.69,922.93,752.5,-437.5,-87.5
-15.86,393.57,922.44,612.5,-595.0,35.0
-15.86,393.69,921.95,542.5,-822.5,52.5
-15.62,393.82,921.34,157.5,-1085.0,-210.0
-15.49,394.06,921.1,-735.0,-875.0,-350.0
-15.25,394.06,921.47,-857.5,-315.0,-315.0
-15.01,394.06,922.2,-245.0,-735.0,-560.0
-14.88,393.82,922.93,280.0,-945.0,-787.5
-15.13,393.57,923.66,402.5,-262.5,-402.5
-15.25,393.21,924.15,787.5,105.0,0.0
-15.37,393.08,924.15,1277.5,-507.5,-35.0
-15.49,392.96,923.78,1172.5,-997.5,-192.5
-15.74,392.96,923.42,525.0,-350.0,-105.0
-15.86,392.84,923.3,245.0,17.5,175.0
-15.86,393.08,923.05,420.0,-87.5,70.0
-15.86,393.08,922.81,140.0,-140.0,35.0
-15.86,393.08,922.81,-17.5,-17.5,70.0
-15.86,392.96,922.81,437.5,-105.0,105.0
-15.86,393.08,922.69,892.5,-507.5,70.0
-15.86,393.33,922.32,420.0,-420.0,17.5
-15.86,393.45,922.08,-52.5,-472.5,-17.5
-15.86,393.57,921.95,245.0,-560.0,70.0
-15.62,393.57,921.83,245.0,-595.0,87.5
-15.37,393.69,921.71,-87.5,-402.5,-157.5
-15.13,393.69,921.95,-227.5,-157.5,-350.0
-15.13,393.69,922.32,245.0,-210.0,-297.5
-15.13,393.57,922.32,577.5,-490.0,-245.0
-15.13,393.57,922.2,507.5,-630.0,-367.5
-15.37,393.57,922.08,280.0,-682.5,-385.0
-15.62,393.45,922.08,262.5,-455.0,-192.5
-16.1,393.33,921.83,87.5,-490.0,52.5
-16.59,393.08,921.83,-17.5,-962.5,140.0
-16.84,392.84,922.32,157.5,-857.5,420.0
-16.84,392.6,922.93,367.5,87.5,840.0
-16.59,392.6,923.17,787.5,280.0,1032.5
-16.1,392.96,923.05,735.0,17.5,665.0
-15.74,393.21,922.81,542.5,-350.0,192.5
-15.37,393.45,922.56,420.0,-350.0,70.0
-15.13,393.57,922.32,490.0,-402.5,-52.5
-14.88,393.82,922.08,490.0,-840.0,-245.0
