acc_x,acc_y,acc_z,gyro_x,gyro_y,gyro_z
7.81,239.61,976.73,542.5,-595.0,385.0
8.17,239.61,976.49,-140.0,-332.5,175.0
8.3,239.61,976.24,-560.0,-472.5,-35.0
8.3,239.73,976.0,-210.0,-682.5,-87.5
8.3,239.85,975.88,87.5,-122.5,0.0
8.3,239.85,975.76,-87.5,542.5,210.0
8.3,239.85,975.63,-437.5,402.5,192.5
8.54,239.61,975.76,-192.5,-245.0,-140.0
8.66,239.49,976.0,87.5,-297.5,-227.5
8.54,239.36,976.24,227.5,-262.5,52.5
8.54,239.24,976.49,192.5,-437.5,105.0
8.54,239.12,976.73,105.0,-35.0,70.0
8.54,239.0,976.85,157.5,157.5,157.5
8.54,239.0,976.73,437.5,-140.0,245.0
8.66,239.0,976.49,210.0,-245.0,122.5
8.78,239.0,976.24,-245.0,35.0,0.0
8.78,239.12,976.24,-315.0,0.0,-122.5
8.66,239.0,976.61,-105.0,280.0,-35.0
8.54,239.0,976.85,70.0,525.0,140.0
8.3,239.0,976.73,157.5,105.0,0.0
8.05,239.0,976.61,140.0,-437.5,-210.0
7.81,238.88,976.61,52.5,-367.5,-122.5
7.56,238.75,976.73,140.0,-122.5,157.5
7.44,238.75,976.73,280.0,-17.5,315.0
7.56,238.63,976.98,-332.5,595.0,332.5
7.56,238.63,977.22,-630.0,1435.0,490.0
7.56,238.63,977.22,-70.0,875.0,280.0
7.56,238.63,976.98,140.0,-17.5,-17.5
7.44,238.51,976.98,-262.5,-367.5,-52.5
7.32,238.27,977.34,-315.0,157.5,87.5
7.2,238.14,977.71,70.0,472.5,332.5
7.2,238.02,977.71,245.0,-17.5,157.5
7.08,238.14,977.59,210.0,-332.5,-35.0
6.95,238.14,977.46,52.5,-227.5,70.0
6.83,238.02,977.59,-227.5,227.5,140.0
6.71,237.78,977.71,-35.0,542.5,122.5
6.34,237.78,977.46,367.5,210.0,17.5
6.1,237.78,976.98,210.0,-647.5,-122.5
5.98,237.66,977.1,-472.5,-385.0,-17.5
5.98,237.53,977.46,-472.5,192.5,227.5
5.98,237.41,977.95,332.5,-717.5,17.5
6.1,237.41,978.32,612.5,-980.0,-157.5
6.34,237.29,978.56,-35.0,0.0,-70.0
6.34,237.17,978.81,-70.0,350.0,-175.0
6.22,236.92,978.81,437.5,87.5,-140.0
6.1,236.92,978.44,-140.0,367.5,35.0
6.22,236.92,978.2,-962.5,665.0,17.5
6.1,236.8,978.2,-962.5,262.5,-35.0
5.98,236.68,978.2,-490.0,-612.5,-210.0
5.73,236.68,978.07,87.5,-1242.5,-455.0
5.49,236.44,977.83,-385.0,-577.5,-35.0
5.37,236.31,977.71,-1365.0,490.0,385.0
5.25,236.19,977.71,-1767.5,717.5,332.5
5.0,235.83,977.95,-1680.0,437.5,490.0
4.64,235.58,978.2,-1837.5,455.0,752.5
4.64,235.34,978.32,-1802.5,245.0,647.5
4.39,235.22,978.68,-1260.0,-437.5,175.0
4.27,234.97,978.93,70.0,-1207.5,-87.5
4.39,234.73,978.81,-70.0,-1032.5,105.0
4.39,234.48,978.93,-1435.0,367.5,385.0
4.39,234.24,979.17,-1487.5,560.0,280.0
4.15,234.0,979.42,-455.0,-350.0,35.0
4.03,233.75,979.42,-402.5,-315.0,70.0
3.9,233.51,979.17,-1085.0,175.0,122.5
3.78,233.14,979.17,-1382.5,-87.5,122.5
3.54,232.65,979.42,-1295.0,-490.0,87.5
3.42,232.29,979.66,-840.0,-542.5,105.0
3.17,232.04,979.9,-437.5,-472.5,227.5
3.29,231.8,979.9,-577.5,-367.5,297.5
3.42,231.43,979.78,-717.5,-332.5,367.5
3.54,231.19,979.9,-980.0,87.5,525.0
3.66,230.82,980.15,-1155.0,822.5,822.5
3.66,230.58,980.51,-595.0,315.0,577.5
3.54,230.34,980.88,52.5,140.0,280.0
3.54,230.09,980.88,70.0,210.0,175.0
3.29,229.85,980.64,-17.5,-192.5,-52.5
3.05,229.6,980.39,-17.5,-665.0,-140.0
2.93,229.36,980.15,-420.0,-385.0,-52.5
2.81,229.12,980.15,-560.0,-280.0,122.5
2.68,228.87,980.15,-647.5,-280.0,157.5
2.68,228.63,980.39,-787.5,-52.5,35.0
2.68,228.26,980.51,-647.5,-157.5,52.5
2.56,228.02,980.51,-455.0,-612.5,-17.5
2.56,227.77,980.51,-455.0,-910.0,-52.5
2.56,227.53,980.39,-1172.5,-577.5,105.0
2.56,227.16,980.64,-1907.5,70.0,367.5
2.56,226.92,980.76,-1960.0,-87.5,402.5
2.56,226.55,980.88,-2275.0,-70.0,402.5
2.68,226.19,981.12,-2292.5,-315.0,122.5
2.68,225.94,981.12,-1697.5,-1242.5,-175.0
2.68,225.7,980.88,-1505.0,-1890.0,-297.5
2.93,225.58,980.15,-2870.0,-2152.5,-525.0
3.17,225.46,979.54,-3920.0,-2397.5,-910.0
3.42,225.21,979.17,-4445.0,-1732.5,-1085.0
3.42,224.97,978.68,-5232.5,-927.5,-822.5
3.54,224.48,978.32,-5635.0,-1382.5,-560.0
3.78,224.24,978.2,-5512.5,-3185.0,-1137.5
4.15,223.87,978.2,-5722.5,-4480.0,-2187.5
4.64,223.26,978.2,-6335.0,-5040.0,-2887.5
5.12,222.16,978.81,-6335.0,-5092.5,-2782.5
5.49,220.82,980.15,-5232.5,-3797.5,-2380.0
5.86,219.36,981.61,-3815.0,-1977.5,-1907.5
6.22,217.89,982.95,-2905.0,-910.0,-1907.5
6.47,216.43,984.05,-2415.0,-507.5,-1732.5
6.47,215.21,984.78,-1802.5,-210.0,-1505.0
6.34,213.87,985.39,-1575.0,-297.5,-1207.5
6.47,212.65,985.88,-1382.5,-1015.0,-1172.5
6.59,211.43,986.61,-612.5,-1050.0,-1050.0
6.71,210.33,987.47,175.0,52.5,-630.0
6.71,209.6,987.96,770.0,840.0,-402.5
6.71,209.11,987.83,962.5,560.0,-350.0
6.59,208.62,987.59,560.0,350.0,-367.5
6.59,208.01,987.47,315.0,367.5,-297.5
6.59,207.64,987.22,385.0,245.0,-52.5
6.71,207.16,986.98,52.5,245.0,175.0
6.95,206.79,986.98,-245.0,122.5,-105.0
7.08,206.3,987.22,472.5,-297.5,-472.5
7.32,205.94,987.47,770.0,-192.5,-577.5
7.32,205.57,987.47,280.0,280.0,-507.5
7.56,205.2,987.22,-385.0,332.5,-455.0
7.69,204.84,987.47,-315.0,210.0,-490.0
7.81,204.47,987.71,315.0,-17.5,-542.5
7.81,204.11,987.83,472.5,-175.0,-665.0
7.93,203.86,987.83,227.5,-297.5,-805.0
8.05,203.5,988.08,630.0,-612.5,-875.0
8.05,203.13,988.32,1382.5,-577.5,-875.0
8.05,203.01,988.44,1067.5,140.0,-700.0
8.05,202.76,988.2,175.0,560.0,-700.0
7.81,202.52,987.96,105.0,280.0,-822.5
7.56,202.4,987.96,717.5,-87.5,-857.5
7.08,202.15,987.71,717.5,-140.0,-577.5
6.59,202.03,987.22,35.0,-70.0,-227.5
6.34,201.79,986.98,-455.0,-245.0,-122.5
6.1,201.67,986.98,-315.0,-507.5,-210.0
5.86,201.42,987.22,-17.5,-385.0,-70.0
5.73,201.18,987.47,350.0,-35.0,157.5
5.61,201.06,987.59,752.5,-140.0,332.5
5.61,200.93,987.47,280.0,-350.0,420.0
5.73,200.69,987.59,-717.5,105.0,280.0
5.86,200.32,988.08,-612.5,455.0,140.0
5.86,200.08,988.69,752.5,-105.0,122.5
5.86,199.96,989.05,1715.0,-87.5,157.5
5.86,200.08,988.81,1400.0,17.5,87.5
5.86,200.08,988.32,717.5,0.0,122.5
5.98,200.08,988.2,840.0,-385.0,17.5
6.22,200.08,988.32,1032.5,-350.0,-35.0
6.34,200.08,988.2,770.0,210.0,17.5
6.47,200.2,988.08,87.5,630.0,227.5
6.47,200.32,988.08,297.5,-17.5,-262.5
6.59,200.45,988.2,1172.5,-840.0,-927.5
6.47,200.57,988.08,1680.0,-787.5,-962.5
6.22,200.69,987.47,1120.0,-227.5,-665.0
5.98,200.93,986.74,-367.5,175.0,-385.0
5.61,201.06,986.37,-595.0,-385.0,-367.5
5.25,201.18,986.37,-87.5,-1050.0,-280.0
5.0,201.3,986.61,437.5,-1050.0,-367.5
4.88,201.3,986.74,595.0,-910.0,-350.0
4.76,201.06,986.86,332.5,-822.5,-87.5
4.88,200.81,987.35,-315.0,192.5,-105.0
4.76,200.45,987.96,140.0,35.0,-227.5
4.51,200.08,988.44,1032.5,-542.5,-87.5
4.39,199.84,988.69,997.5,0.0,297.5
4.51,199.96,988.57,682.5,472.5,525.0
4.64,200.08,988.32,420.0,192.5,245.0
4.64,200.2,988.2,910.0,-875.0,-122.5
4.88,200.45,988.08,927.5,-87.5,35.0
5.0,200.81,987.71,385.0,875.0,105.0
5.12,201.06,987.22,227.5,105.0,-175.0
5.25,201.42,986.98,472.5,-1050.0,-822.5
5.12,201.54,986.98,682.5,-1277.5,-910.0
5.12,201.54,987.1,210.0,-105.0,-192.5
5.25,201.54,987.35,-87.5,787.5,-35.0
5.12,201.67,987.47,175.0,157.5,-542.5
5.0,201.67,987.59,875.0,-700.0,-857.5
4.88,201.67,987.59,980.0,-280.0,-630.0
4.51,201.54,987.47,262.5,700.0,-227.5
4.15,201.42,987.22,-35.0,630.0,-175.0
3.9,201.3,986.98,122.5,-245.0,-385.0
3.54,201.18,986.86,140.0,-840.0,-472.5
3.17,201.06,986.74,280.0,-1050.0,-420.0
3.05,200.81,986.98,0.0,-560.0,140.0
2.93,200.69,987.35,122.5,315.0,350.0
2.81,200.57,987.71,962.5,-140.0,385.0
2.93,200.69,987.71,1225.0,-402.5,315.0
3.05,201.06,987.47,647.5,35.0,35.0
3.05,201.3,987.1,332.5,-17.5,-175.0
2.81,201.42,986.74,437.5,-437.5,-87.5
2.68,201.67,986.25,70.0,-507.5,70.0
2.68,201.79,986.0,-315.0,-612.5,-35.0
2.68,202.03,985.76,-455.0,-630.0,-210.0
2.68,202.03,985.88,-542.5,-245.0,-175.0
2.56,202.03,985.76,-577.5,-542.5,-105.0
2.56,202.03,986.0,-560.0,-735.0,-140.0
2.68,201.79,986.25,-402.5,-647.5,-105.0
2.68,201.54,986.49,-385.0,-770.0,-175.0
2.81,201.3,986.74,-105.0,-857.5,-280.0
2.81,201.3,986.98,-140.0,-577.5,-227.5
2.68,201.18,987.22,-122.5,-560.0,-52.5
2.56,201.06,987.35,140.0,-735.0,35.0
2.56,200.81,987.47,175.0,-507.5,140.0
2.68,200.81,987.59,122.5,-192.5,332.5
2.68,200.81,987.71,315.0,-612.5,140.0
2.93,200.93,987.47,437.5,-927.5,-52.5
2.93,201.06,987.35,-70.0,-665.0,70.0
3.05,201.18,987.1,-560.0,-385.0,280.0
3.17,201.3,987.22,-525.0,-857.5,70.0
3.42,201.18,987.47,-140.0,-1137.5,-297.5
3.66,200.93,987.83,227.5,-945.0,-297.5
3.66,200.69,987.96,315.0,-805.0,-122.5
3.66,200.57,987.96,175.0,-962.5,-192.5
3.66,200.32,988.2,-350.0,-507.5,0.0
3.66,199.96,988.57,-455.0,122.5,332.5
3.54,199.84,988.93,140.0,140.0,525.0
3.66,199.84,989.05,577.5,-455.0,245.0
3.66,199.84,989.18,630.0,-647.5,227.5
3.78,199.84,989.18,647.5,-420.0,227.5
3.78,199.96,989.05,875.0,-542.5,192.5
3.78,200.08,988.69,717.5,-525.0,192.5
3.66,200.32,988.32,-52.5,-157.5,315.0
3.54,200.32,987.96,-420.0,-297.5,525.0
3.54,200.32,987.83,-227.5,-857.5,595.0
3.66,200.32,987.96,52.5,-1190.0,315.0
3.9,200.2,987.96,-17.5,-1260.0,192.5
4.15,200.08,988.2,-157.5,-962.5,367.5
4.39,199.96,988.57,87.5,-875.0,472.5
4.64,199.84,988.93,297.5,-805.0,437.5
5.0,199.71,989.18,350.0,-717.5,402.5
5.12,199.71,989.42,140.0,17.5,507.5
5.37,199.59,989.42,-192.5,35.0,367.5
5.61,199.59,989.42,-70.0,-367.5,35.0
5.73,199.59,989.54,17.5,-192.5,122.5
5.61,199.59,989.54,105.0,175.0,472.5
5.73,199.59,989.3,402.5,-210.0,262.5
5.73,199.84,988.93,367.5,-822.5,-70.0
5.86,199.84,988.69,0.0,-822.5,-140.0
5.73,199.84,988.69,-52.5,-700.0,-70.0
5.61,199.71,988.69,262.5,-997.5,17.5
5.49,199.84,988.57,-52.5,-822.5,157.5
5.37,199.71,988.2,-262.5,-875.0,157.5
5.25,199.71,987.96,-140.0,-1610.0,70.0
5.25,199.59,987.83,-105.0,-1977.5,-35.0
5.25,199.35,987.96,-700.0,-1120.0,385.0
5.25,198.98,988.2,-1050.0,-315.0,875.0
5.25,198.86,988.69,-630.0,-542.5,787.5
5.49,198.62,989.18,105.0,-1050.0,630.0
5.86,198.37,989.66,210.0,-402.5,770.0
6.1,198.13,989.91,35.0,-35.0,875.0
6.34,197.88,990.27,367.5,-175.0,857.5
6.59,197.88,990.52,1015.0,-280.0,787.5
6.83,197.88,990.27,910.0,-367.5,595.0
7.08,198.01,990.03,350.0,-297.5,560.0
7.2,198.01,989.91,350.0,87.5,700.0
7.32,197.88,989.66,245.0,35.0,752.5
7.56,198.01,989.54,210.0,-717.5,350.0
7.81,198.01,989.54,245.0,-1172.5,52.5
8.05,197.88,989.91,210.0,-752.5,297.5
8.3,197.88,990.4,490.0,-350.0,402.5
8.54,197.76,990.64,980.0,-455.0,262.5
8.66,197.64,990.76,1120.0,-455.0,157.5
8.91,197.64,990.88,1102.5,-262.5,140.0
8.91,197.64,990.88,1347.5,-350.0,105.0
8.91,197.64,990.64,1452.5,-472.5,105.0
8.91,197.88,990.27,1207.5,-455.0,52.5
8.78,198.01,989.79,875.0,-542.5,70.0
8.54,198.13,989.42,875.0,-805.0,87.5
8.3,198.37,988.81,682.5,-980.0,262.5
8.3,198.49,988.57,437.5,-962.5,420.0
8.3,198.74,988.44,455.0,-682.5,542.5
8.17,198.86,988.32,192.5,-507.5,525.0
8.17,198.86,988.44,157.5,-735.0,420.0
8.05,198.74,988.69,420.0,-910.0,560.0
7.93,198.62,989.05,647.5,-437.5,1102.5
8.05,198.62,989.18,1015.0,-490.0,1347.5
8.3,198.86,989.05,1242.5,-1067.5,1015.0
8.66,199.1,988.81,1330.0,-1435.0,612.5
8.91,199.23,988.69,1347.5,-1470.0,472.5
9.15,199.35,988.44,1295.0,-1505.0,472.5
9.39,199.71,988.2,1242.5,-1347.5,612.5
9.76,200.08,987.71,577.5,-682.5,647.5
10.13,200.32,987.22,-70.0,-910.0,262.5
10.49,200.57,987.22,-87.5,-1627.5,-280.0
10.86,200.69,987.22,105.0,-1540.0,-385.0
11.22,200.69,987.59,175.0,-945.0,-122.5
11.71,200.81,988.2,682.5,-560.0,-280.0
11.96,200.69,988.57,1522.5,-1295.0,-560.0
12.2,200.69,988.81,1855.0,-1732.5,-490.0
12.32,200.81,988.69,1470.0,-1400.0,-297.5
12.44,201.06,988.57,1067.5,-980.0,-210.0
12.44,201.06,988.2,910.0,-1312.5,-175.0
12.44,201.3,987.96,542.5,-1295.0,-35.0
12.69,201.42,987.83,-17.5,-420.0,385.0
12.69,201.42,987.83,-122.5,-402.5,420.0
12.93,201.67,987.96,420.0,-1190.0,17.5
13.18,201.79,987.96,507.5,-1347.5,-245.0
13.3,201.79,988.2,455.0,-700.0,-70.0
13.42,201.79,988.44,787.5,-752.5,192.5
13.54,201.79,988.44,805.0,-717.5,385.0
13.79,201.91,988.32,175.0,-280.0,385.0
14.15,202.03,988.2,-122.5,-367.5,157.5
14.4,202.28,988.08,245.0,-1085.0,-157.5
14.64,202.4,988.2,665.0,-1085.0,-245.0
14.88,202.52,988.2,910.0,-892.5,-105.0
15.25,202.76,988.2,367.5,-525.0,-35.0
15.62,202.76,988.32,297.5,-490.0,-210.0
15.74,202.76,988.44,927.5,-822.5,-262.5
15.98,203.01,988.44,1120.0,-997.5,-367.5
16.1,203.01,988.44,717.5,-157.5,-402.5
15.98,203.01,988.32,402.5,87.5,0.0
15.98,203.01,988.44,962.5,-70.0,52.5
15.98,203.25,988.44,1225.0,-857.5,-280.0
15.98,203.37,988.2,507.5,-1470.0,-385.0
16.1,203.37,988.44,-280.0,-700.0,-17.5
16.35,203.25,989.05,-455.0,297.5,350.0
16.59,203.25,989.54,420.0,-175.0,157.5
16.84,203.37,989.79,1225.0,-892.5,-350.0
17.08,203.5,989.54,945.0,-490.0,-472.5
17.2,203.5,989.3,227.5,455.0,-262.5
17.08,203.5,989.18,140.0,525.0,-70.0
16.96,203.5,989.18,770.0,-175.0,-227.5
16.84,203.74,988.93,980.0,-805.0,-297.5
16.84,203.98,988.57,350.0,-840.0,-315.0
16.84,204.23,988.32,-105.0,-560.0,-297.5
16.84,204.35,988.32,-17.5,-542.5,0.0
16.84,204.47,988.44,297.5,-525.0,245.0
16.96,204.59,988.44,140.0,105.0,227.5
16.96,204.84,988.2,-315.0,192.5,52.5
16.96,204.96,988.2,-245.0,-402.5,-210.0
16.71,205.08,988.32,105.0,-612.5,-210.0
16.59,204.96,988.44,227.5,-70.0,332.5
16.59,204.96,988.44,192.5,70.0,665.0
16.71,204.96,988.32,-17.5,-175.0,350.0
16.96,204.96,988.44,-35.0,-525.0,-157.5
17.08,204.96,988.57,332.5,-437.5,-280.0
16.84,205.08,988.44,385.0,-105.0,-17.5
16.71,205.08,988.2,35.0,-157.5,140.0
16.59,205.2,988.08,-245.0,-542.5,-35.0
16.59,204.96,988.2,-297.5,-822.5,-87.5
16.59,204.72,988.44,-210.0,-420.0,280.0
16.59,204.47,988.69,-280.0,122.5,560.0
16.84,204.47,988.93,35.0,-140.0,402.5
16.96,204.35,989.3,262.5,-262.5,105.0
16.84,204.35,989.42,542.5,-315.0,140.0
16.84,204.35,989.3,595.0,-315.0,332.5
16.96,204.35,989.05,175.0,-210.0,332.5
17.08,204.35,988.93,-297.5,192.5,332.5
17.08,204.35,988.93,-17.5,-192.5,192.5
17.08,204.35,988.93,472.5,-700.0,157.5
17.32,204.35,988.93,262.5,-315.0,210.0
17.45,204.35,989.18,175.0,-122.5,0.0
17.57,204.35,989.3,770.0,-455.0,-245.0
17.69,204.35,989.3,647.5,35.0,-35.0
17.81,204.35,989.3,175.0,542.5,140.0
17.93,204.47,989.3,455.0,297.5,-227.5
17.93,204.59,989.18,857.5,-122.5,-507.5
17.69,204.59,988.69,735.0,-245.0,-350.0
17.57,204.59,988.32,122.5,-105.0,-157.5
17.57,204.59,988.2,-192.5,-17.5,-297.5
17.57,204.47,988.32,105.0,-52.5,-367.5
17.45,204.35,988.44,105.0,332.5,-122.5
17.45,204.23,988.57,-70.0,367.5,-87.5
17.57,204.23,988.69,105.0,-87.5,-350.0
17.69,204.23,989.05,700.0,-262.5,-560.0
17.57,204.23,989.18,1067.5,52.5,-525.0
17.45,204.47,988.69,927.5,-52.5,-525.0
17.32,204.47,988.2,402.5,-122.5,-560.0
17.32,204.47,987.96,157.5,105.0,-647.5
17.08,204.47,987.71,367.5,35.0,-700.0
16.96,204.47,987.59,-140.0,262.5,-577.5
16.84,204.35,987.71,-787.5,437.5,-560.0
16.71,204.23,988.32,-52.5,-227.5,-875.0
16.59,203.98,988.93,1242.5,-647.5,-1015.0
16.47,204.11,989.18,1365.0,122.5,-700.0
16.35,204.35,989.18,1085.0,437.5,-822.5
16.1,204.47,988.69,1137.5,-227.5,-1207.5
15.86,204.59,988.32,770.0,-350.0,-1172.5
15.62,204.47,988.08,17.5,472.5,-857.5
15.25,204.59,987.96,70.0,647.5,-682.5
14.88,204.72,987.71,577.5,70.0,-805.0
14.64,204.96,987.22,472.5,-472.5,-945.0
14.4,205.08,986.86,-52.5,-472.5,-980.0
14.15,204.96,986.74,-437.5,70.0,-682.5
13.91,204.84,987.1,-315.0,525.0,-472.5
13.79,204.72,987.47,105.0,87.5,-735.0
13.42,204.59,987.71,420.0,-612.5,-962.5
13.05,204.47,987.96,262.5,-437.5,-752.5
12.69,204.23,988.2,175.0,70.0,-192.5
12.32,204.23,988.57,542.5,-140.0,17.5
12.08,204.47,988.69,997.5,-542.5,-87.5
11.96,204.59,988.57,717.5,-297.5,-52.5
11.96,204.72,988.44,87.5,367.5,-17.5
11.83,204.84,988.32,490.0,-227.5,-297.5
11.71,204.96,988.08,805.0,-945.0,-490.0
11.59,205.2,987.71,402.5,-490.0,-367.5
11.47,205.08,987.47,-437.5,420.0,105.0
11.35,204.96,987.47,-297.5,-87.5,-17.5
11.22,204.96,987.47,245.0,-962.5,-297.5
11.1,204.72,987.71,52.5,-315.0,-105.0
10.98,204.59,987.96,17.5,315.0,402.5
10.98,204.47,988.08,315.0,-17.5,227.5
10.98,204.59,988.08,927.5,-787.5,-192.5
10.86,204.72,987.96,665.0,-507.5,-17.5
10.61,204.96,987.47,297.5,-297.5,105.0
10.49,205.08,986.98,-87.5,-525.0,105.0
10.49,205.2,986.74,-315.0,-525.0,122.5
10.49,205.2,986.61,-87.5,-857.5,140.0
10.49,205.2,986.61,-472.5,-787.5,17.5
10.74,205.2,986.74,-472.5,-542.5,-52.5
10.74,205.08,987.1,-227.5,-402.5,105.0
10.86,204.96,987.35,-192.5,-367.5,227.5
11.1,204.72,987.71,-245.0,-105.0,122.5
11.22,204.47,987.96,227.5,-245.0,-17.5
11.35,204.47,988.2,577.5,-647.5,-70.0
11.22,204.47,988.2,455.0,-350.0,-122.5
11.22,204.47,987.96,472.5,-542.5,-70.0
10.98,204.47,987.83,385.0,-315.0,-35.0
10.74,204.35,987.47,455.0,-315.0,157.5
10.61,204.35,986.98,52.5,-192.5,437.5
10.61,204.47,986.61,-857.5,-35.0,315.0
10.49,204.47,986.74,-735.0,-857.5,52.5
10.49,204.59,986.98,-105.0,-1435.0,140.0
10.61,204.72,987.35,17.5,-717.5,350.0
10.86,204.72,987.47,-227.5,-350.0,245.0
11.1,204.59,987.71,0.0,-735.0,-70.0
11.22,204.23,988.2,315.0,-560.0,-122.5
11.35,203.74,988.32,262.5,0.0,245.0
11.35,203.5,988.44,175.0,-105.0,367.5
11.47,203.37,988.69,332.5,-350.0,262.5
11.47,203.37,988.69,665.0,-315.0,140.0
11.71,203.37,988.69,752.5,-472.5,52.5
11.71,203.5,988.32,595.0,-420.0,-17.5
11.71,203.62,987.96,455.0,-367.5,70.0
11.83,203.74,987.59,140.0,-157.5,210.0
11.83,203.98,987.22,-175.0,52.5,35.0
11.71,203.98,987.1,-227.5,-420.0,-157.5
11.59,204.11,986.98,-210.0,-822.5,-175.0
11.47,203.98,986.98,-315.0,-542.5,157.5
11.35,203.86,987.22,-490.0,-52.5,420.0
11.47,203.74,987.71,192.5,-542.5,367.5
11.71,203.74,987.83,280.0,-490.0,227.5
11.96,203.74,987.96,297.5,-490.0,35.0
11.96,203.74,988.08,105.0,-105.0,17.5
11.96,203.74,987.96,472.5,-472.5,-70.0
11.96,203.62,987.71,105.0,-385.0,157.5
11.96,203.5,987.83,-437.5,157.5,122.5
12.08,203.25,987.96,105.0,-472.5,-87.5
11.96,203.13,987.96,350.0,-875.0,-192.5
12.08,203.13,987.96,612.5,-717.5,-227.5
12.08,203.01,987.83,140.0,-472.5,175.0
12.08,203.01,988.08,-332.5,105.0,140.0
12.08,203.01,988.08,752.5,-700.0,-70.0
12.08,203.01,987.96,455.0,-542.5,210.0
12.08,203.01,987.71,-367.5,245.0,245.0
11.96,203.13,987.71,35.0,-630.0,0.0
11.83,203.25,987.47,612.5,-1015.0,-17.5
11.83,203.25,987.22,105.0,-490.0,227.5
11.83,203.25,986.98,-490.0,-455.0,52.5
11.83,203.25,986.98,-175.0,-997.5,-140.0
11.83,203.13,986.98,-140.0,-805.0,0.0
11.83,203.01,987.22,-437.5,-157.5,367.5
11.96,202.76,987.47,-507.5,-35.0,297.5
12.08,202.52,987.96,140.0,-280.0,140.0
11.96,202.52,988.08,332.5,-280.0,227.5
11.96,202.4,988.08,297.5,-350.0,332.5
11.71,202.28,987.96,297.5,-455.0,122.5
11.59,202.28,987.96,770.0,-630.0,192.5
11.47,202.4,987.35,507.5,-350.0,490.0
11.47,202.52,986.74,-525.0,-630.0,385.0
11.59,202.64,986.37,-1137.5,-857.5,227.5
11.71,202.52,986.74,-875.0,-805.0,350.0
11.96,202.52,987.1,-210.0,-962.5,455.0
12.32,202.28,987.47,-332.5,-875.0,367.5
12.69,202.03,988.08,-350.0,-630.0,140.0
13.05,201.67,988.69,525.0,-840.0,-140.0
13.3,201.54,988.93,1190.0,-1207.5,-297.5
13.42,201.42,988.81,630.0,-647.5,-105.0
13.54,201.3,988.57,-52.5,17.5,140.0
13.54,201.3,988.44,245.0,-332.5,70.0
13.54,201.42,988.32,595.0,-875.0,-140.0
13.66,201.54,987.96,122.5,-455.0,-52.5
13.54,201.54,987.59,-332.5,-210.0,122.5
13.66,201.54,987.59,-52.5,-472.5,0.0
13.54,201.54,987.59,350.0,-612.5,-105.0
13.42,201.54,987.47,175.0,-612.5,0.0
13.18,201.54,987.22,-437.5,-385.0,175.0
13.05,201.3,987.22,-577.5,-245.0,385.0
12.93,200.93,987.59,-87.5,-367.5,630.0
13.18,200.81,987.96,402.5,-350.0,665.0
13.42,200.81,987.96,507.5,-595.0,472.5
13.79,200.81,987.96,122.5,-280.0,210.0
13.91,200.69,987.96,315.0,-332.5,157.5
14.15,200.81,987.96,472.5,-385.0,70.0
14.4,200.81,987.71,280.0,-577.5,52.5
14.64,200.81,987.47,-297.5,-245.0,35.0
14.64,200.81,987.47,0.0,-472.5,-87.5
14.64,200.81,987.35,192.5,-682.5,-140.0
14.76,200.57,987.35,-157.5,-455.0,-87.5
14.76,200.32,987.59,-332.5,-70.0,-35.0
14.64,200.2,987.96,472.5,-490.0,0.0
14.64,200.2,987.96,735.0,-630.0,17.5
14.64,200.32,987.71,595.0,-717.5,-245.0
14.64,200.2,987.47,0.0,-420.0,0.0
14.64,200.2,987.35,-490.0,262.5,280.0
14.52,200.2,987.35,0.0,-140.0,315.0
14.64,200.08,987.47,-52.5,-315.0,87.5
14.76,200.08,987.59,157.5,-437.5,-105.0
14.76,199.96,987.47,437.5,-927.5,-52.5
15.01,199.84,987.59,-245.0,-210.0,175.0
15.13,199.59,987.96,-17.5,140.0,70.0
15.13,199.59,988.32,822.5,-560.0,-17.5
15.13,199.59,988.2,787.5,-472.5,-157.5
15.13,199.84,987.83,612.5,-367.5,-105.0
15.13,199.84,987.22,52.5,-595.0,-35.0
15.13,199.96,986.98,-122.5,-752.5,-315.0
15.25,199.84,986.98,35.0,-997.5,-402.5
15.37,199.96,986.86,105.0,-1225.0,-455.0
15.37,199.96,986.98,-105.0,-822.5,-420.0
15.62,199.84,987.35,-52.5,-437.5,-350.0
15.49,199.59,987.59,507.5,-437.5,-280.0
15.37,199.59,987.71,472.5,-367.5,-175.0
15.37,199.59,987.59,332.5,0.0,-17.5
15.25,199.59,987.47,17.5,0.0,17.5
15.13,199.59,987.22,-157.5,-717.5,-227.5
15.13,199.59,987.22,35.0,-1400.0,-402.5
15.13,199.35,987.47,-17.5,-980.0,-140.0
15.25,199.23,987.83,35.0,-402.5,210.0
15.49,199.23,988.2,227.5,-420.0,87.5
15.74,199.1,988.44,700.0,-577.5,-367.5
15.86,199.1,988.32,927.5,-717.5,-455.0
15.98,199.1,988.08,455.0,-542.5,-297.5
15.98,198.86,987.83,-87.5,-87.5,-210.0
15.86,198.86,987.83,122.5,-122.5,-105.0
15.74,198.86,987.71,595.0,-595.0,-122.5
15.62,198.98,987.35,490.0,-857.5,-140.0
15.62,198.98,986.98,-105.0,-542.5,-87.5
15.62,198.98,986.98,-227.5,-437.5,105.0
15.62,198.98,986.98,192.5,-577.5,210.0
15.62,199.1,986.86,-35.0,-525.0,87.5
15.86,199.35,986.74,-542.5,-665.0,-227.5
15.74,199.35,986.98,-542.5,-752.5,-332.5
15.62,198.98,987.35,-227.5,-717.5,35.0
15.62,198.86,987.71,157.5,-542.5,332.5
15.86,198.74,988.08,437.5,-717.5,210.0
16.23,198.86,988.2,542.5,-1032.5,-245.0
16.47,198.98,988.44,542.5,-595.0,-420.0
16.47,198.98,988.32,385.0,-297.5,-315.0
16.47,198.98,988.08,385.0,-735.0,-262.5
16.35,199.1,987.83,280.0,-1295.0,-472.5
16.47,198.98,987.71,332.5,-1907.5,-665.0
16.47,198.86,987.71,595.0,-2257.5,-840.0
16.47,198.86,987.71,595.0,-2275.0,-700.0
16.47,198.62,987.96,350.0,-1627.5,-315.0
16.59,198.62,988.2,595.0,-1155.0,-17.5
16.71,198.62,987.96,997.5,-2240.0,-280.0
16.96,198.86,987.71,857.5,-3185.0,-840.0
17.32,198.98,987.47,350.0,-2765.0,-910.0
17.57,198.86,987.71,-52.5,-1610.0,-210.0
17.93,198.86,987.96,140.0,-1382.5,52.5
18.54,198.86,988.44,332.5,-1732.5,-385.0
19.03,198.86,988.69,665.0,-2345.0,-997.5
19.28,198.74,988.93,1067.5,-2467.5,-1015.0
19.52,198.62,989.05,752.5,-1155.0,-140.0
19.76,198.74,988.93,175.0,-297.5,315.0
20.13,198.86,988.69,402.5,-1207.5,-175.0
20.5,199.1,988.57,577.5,-2205.0,-787.5
20.98,199.23,988.32,507.5,-2310.0,-980.0
21.23,199.23,988.32,350.0,-1697.5,-542.5
21.47,199.23,988.44,227.5,-1015.0,-157.5
21.72,199.35,988.44,420.0,-1155.0,-175.0
21.96,199.35,988.32,402.5,-1645.0,-437.5
22.45,199.35,988.2,227.5,-2030.0,-665.0
22.69,199.47,988.32,297.5,-2467.5,-892.5
23.06,199.47,988.44,1050.0,-3080.0,-1067.5
23.18,199.35,988.57,1505.0,-3010.0,-525.0
23.42,199.35,988.69,612.5,-1365.0,0.0
23.91,199.59,988.69,350.0,-1015.0,-17.5
24.28,199.71,988.44,455.0,-2030.0,-525.0
24.64,199.84,988.44,507.5,-2642.5,-962.5
25.13,199.84,988.44,665.0,-2467.5,-752.5
25.5,199.84,988.44,910.0,-2397.5,-472.5
25.99,199.84,988.44,997.5,-2502.5,-717.5
26.35,199.96,988.57,665.0,-2100.0,-700.0
26.72,200.08,988.69,507.5,-1102.5,-332.5
26.96,200.2,988.69,297.5,-402.5,35.0
27.21,200.32,988.2,-315.0,-787.5,-35.0
27.57,200.45,988.2,-315.0,-1837.5,-297.5
28.06,200.45,988.44,35.0,-2257.5,-560.0
28.55,200.45,989.18,770.0,-2257.5,-542.5
29.04,200.32,989.66,980.0,-1330.0,-70.0
29.52,200.32,989.66,682.5,-385.0,192.5
29.89,200.32,989.54,665.0,-525.0,70.0
30.26,200.45,989.18,630.0,-1172.5,-385.0
30.5,200.57,988.93,700.0,-1750.0,-717.5
30.74,200.69,988.44,437.5,-1365.0,-350.0
30.99,200.81,988.32,-210.0,-437.5,157.5
31.35,200.81,988.2,-437.5,-297.5,210.0
31.72,200.93,988.32,-192.5,-962.5,-140.0
31.96,201.06,988.44,105.0,-1190.0,-262.5
32.45,201.18,988.69,245.0,-787.5,-140.0
32.7,201.42,988.69,297.5,-717.5,-315.0
33.18,201.54,988.44,332.5,-1085.0,-525.0
33.43,201.54,988.32,-87.5,-1102.5,-507.5
33.67,201.54,988.32,-105.0,-1172.5,-437.5
33.92,201.67,988.32,175.0,-1487.5,-525.0
34.4,201.54,988.32,-70.0,-997.5,-437.5
34.65,201.54,988.69,-420.0,87.5,-157.5
35.01,201.54,988.69,-157.5,-87.5,-280.0
35.26,201.54,988.69,192.5,-1137.5,-770.0
35.38,201.54,988.44,210.0,-1662.5,-1085.0
35.38,201.42,988.44,70.0,-1540.0,-910.0
35.38,201.3,988.44,70.0,-1242.5,-437.5
35.5,201.06,988.69,-87.5,-752.5,-140.0
35.62,200.93,989.18,-490.0,210.0,122.5
35.75,200.69,989.54,-175.0,280.0,227.5
35.87,200.69,989.79,542.5,-472.5,-70.0
35.99,200.69,989.66,892.5,-752.5,-227.5
35.99,200.81,989.3,700.0,-700.0,-210.0
36.11,200.93,988.69,472.5,-997.5,-227.5
36.11,200.93,988.32,70.0,-1137.5,-245.0
36.23,200.93,988.08,-385.0,-962.5,-122.5
36.36,200.93,988.2,-717.5,-350.0,157.5
36.6,200.81,988.69,-402.5,-192.5,262.5
36.84,200.69,988.93,262.5,-560.0,87.5
37.09,200.57,989.05,507.5,-840.0,-175.0
37.21,200.57,989.18,595.0,-805.0,-297.5
37.33,200.45,989.05,507.5,-805.0,-105.0
37.33,200.57,988.93,280.0,-472.5,0.0
37.45,200.57,988.69,-157.5,227.5,297.5
37.58,200.57,988.57,-297.5,332.5,472.5
37.7,200.57,988.57,-507.5,595.0,577.5
37.82,200.45,988.69,-420.0,332.5,350.0
37.82,200.32,988.81,420.0,-787.5,-52.5
37.94,200.2,988.81,700.0,-1400.0,-227.5
38.06,200.2,988.93,122.5,-857.5,-210.0
38.06,200.08,989.18,-245.0,385.0,385.0
38.06,199.96,989.3,-122.5,402.5,682.5
38.43,199.96,989.42,332.5,-315.0,210.0
38.67,199.84,989.42,157.5,-35.0,140.0
38.92,200.08,989.42,87.5,297.5,175.0
39.04,200.08,989.42,507.5,-350.0,17.5
39.16,200.08,989.3,542.5,-735.0,-385.0
39.16,200.08,989.3,402.5,-560.0,-507.5
39.04,199.96,989.18,402.5,192.5,-87.5
38.67,199.96,988.93,280.0,507.5,227.5
38.55,200.08,988.44,-105.0,-262.5,140.0
38.43,200.08,988.32,-840.0,-682.5,35.0
38.55,199.84,988.81,-385.0,-560.0,17.5
38.67,199.59,989.66,385.0,-332.5,122.5
38.8,199.59,989.91,1015.0,-542.5,-35.0
38.8,199.59,989.79,857.5,-577.5,-122.5
38.92,199.47,989.66,350.0,-157.5,-175.0
38.8,199.35,989.54,682.5,-402.5,-192.5
38.67,199.35,989.3,665.0,-682.5,-52.5
38.67,199.47,988.93,245.0,-332.5,17.5
38.67,199.47,988.69,35.0,-297.5,157.5
38.8,199.35,988.81,-595.0,507.5,385.0
38.8,199.47,989.18,280.0,227.5,105.0
38.67,199.47,988.93,1347.5,-1295.0,-245.0
38.8,199.71,988.57,367.5,-752.5,-192.5
38.67,199.84,988.2,-192.5,87.5,-140.0
38.43,199.84,988.2,-52.5,-437.5,105.0
38.31,199.84,988.32,87.5,-700.0,-52.5
38.31,199.71,988.44,-52.5,-455.0,175.0
38.31,199.47,988.93,-647.5,577.5,665.0
38.43,199.47,989.3,647.5,-87.5,402.5
38.55,199.59,989.18,1155.0,-1172.5,-122.5
38.8,199.84,988.69,665.0,-1382.5,-665.0
38.67,199.96,988.2,350.0,-980.0,-245.0
38.55,199.84,988.08,-962.5,402.5,542.5
38.67,199.59,988.44,-1172.5,647.5,367.5
38.67,199.47,989.05,157.5,-822.5,-192.5
38.55,199.23,989.42,647.5,-1120.0,-105.0
38.55,198.86,989.91,-192.5,210.0,332.5
38.55,198.62,990.4,122.5,175.0,402.5
38.55,198.62,990.64,1610.0,-1067.5,-52.5
38.67,198.74,990.15,1452.5,-1085.0,-52.5
38.8,198.98,989.42,-245.0,385.0,402.5
38.8,199.23,988.93,-420.0,52.5,245.0
38.8,199.35,988.93,490.0,-1207.5,-227.5
38.92,199.35,988.81,210.0,-875.0,-105.0
39.04,199.35,988.93,-770.0,525.0,402.5
39.16,199.1,989.54,-647.5,420.0,437.5
39.28,198.98,990.27,577.5,-472.5,-175.0
39.16,198.86,990.52,1295.0,-682.5,-192.5
39.16,199.1,990.15,770.0,-245.0,157.5
39.04,199.1,989.91,-35.0,87.5,227.5
39.16,199.23,989.66,105.0,-402.5,-105.0
39.04,199.23,989.66,525.0,-752.5,-245.0
39.04,199.23,989.42,140.0,-122.5,175.0
39.04,199.23,989.42,-507.5,350.0,245.0
39.16,199.1,989.54,-35.0,-210.0,-87.5
39.04,198.98,989.79,647.5,-927.5,-280.0
39.04,198.86,989.79,490.0,-682.5,-122.5
39.04,198.86,989.79,-140.0,-87.5,105.0
39.04,198.74,989.91,-70.0,-140.0,157.5
39.16,198.74,990.15,542.5,-717.5,-140.0
39.28,198.62,990.27,525.0,-612.5,-175.0
39.28,198.74,990.15,175.0,122.5,87.5
39.16,198.86,990.03,402.5,-87.5,122.5
39.04,198.86,989.91,367.5,-402.5,35.0
39.04,198.98,989.79,-175.0,52.5,-70.0
38.8,198.86,989.91,227.5,-52.5,35.0
38.67,198.86,989.79,560.0,-192.5,122.5
38.55,198.86,989.54,-87.5,-280.0,70.0
38.31,198.86,989.66,-315.0,-647.5,122.5
38.31,198.86,990.15,157.5,-577.5,385.0
38.55,198.74,990.64,420.0,-437.5,525.0
38.8,198.74,990.76,332.5,-542.5,262.5
39.04,198.62,991.13,595.0,-402.5,52.5
39.28,198.49,991.37,962.5,-122.5,70.0
39.28,198.37,991.13,1015.0,-140.0,0.0
39.16,198.49,990.76,735.0,-455.0,70.0
39.28,198.49,990.64,332.5,-315.0,87.5
39.53,198.62,990.4,367.5,-122.5,0.0
39.53,198.74,990.27,822.5,-560.0,-245.0
39.53,198.86,989.91,682.5,-647.5,-262.5
39.28,199.1,989.42,35.0,-245.0,-52.5
39.16,199.1,989.3,0.0,-87.5,105.0
38.92,199.35,989.3,297.5,-350.0,35.0
38.67,199.35,989.18,-35.0,-507.5,-17.5
38.31,199.35,989.18,-525.0,-157.5,192.5
37.94,199.1,989.66,-175.0,0.0,595.0
37.82,198.86,990.15,542.5,-315.0,735.0
37.94,198.62,990.64,437.5,35.0,665.0
38.19,198.62,990.88,402.5,437.5,647.5
38.19,198.74,990.88,910.0,192.5,595.0
38.31,198.86,990.64,910.0,-245.0,385.0
38.31,199.1,990.15,437.5,-385.0,175.0
38.31,199.1,989.91,175.0,-227.5,332.5
38.31,199.1,989.79,70.0,87.5,560.0
38.55,199.23,989.66,-17.5,-157.5,315.0
38.55,199.1,989.91,52.5,-542.5,-70.0
38.55,199.1,990.15,245.0,-332.5,157.5
38.55,198.98,990.52,577.5,-140.0,350.0
38.67,198.98,990.52,822.5,-437.5,122.5
38.67,199.1,990.4,980.0,-875.0,-192.5
38.55,199.23,990.15,770.0,-665.0,-52.5
38.31,199.35,989.54,105.0,-157.5,297.5
38.31,199.35,989.18,-385.0,87.5,612.5
38.31,199.23,989.3,-455.0,52.5,560.0
38.43,199.23,989.42,-35.0,-157.5,367.5
38.55,199.23,989.66,350.0,-542.5,140.0
38.67,199.23,989.91,227.5,-315.0,140.0
38.92,199.1,990.15,105.0,245.0,210.0
39.04,199.1,990.52,472.5,175.0,52.5
38.92,199.23,990.52,822.5,-297.5,-122.5
39.04,199.35,990.27,280.0,-52.5,-70.0
39.28,199.35,990.27,-52.5,437.5,-157.5
39.41,199.35,990.4,332.5,192.5,-332.5
39.53,199.47,990.4,647.5,-262.5,-700.0
39.53,199.59,990.27,665.0,-455.0,-892.5
39.28,199.59,989.91,490.0,-280.0,-805.0
39.04,199.59,989.79,262.5,-227.5,-717.5
38.8,199.35,989.66,35.0,140.0,-647.5
38.43,199.1,989.54,192.5,-175.0,-577.5
38.19,198.86,989.54,280.0,-210.0,-455.0
37.82,198.86,989.54,-17.5,-35.0,-227.5
37.45,198.74,989.66,-17.5,-227.5,-52.5
37.21,198.86,989.91,402.5,-385.0,-87.5
37.09,198.86,990.15,840.0,-402.5,-87.5
36.84,198.98,990.03,787.5,-297.5,17.5
36.84,198.98,989.79,542.5,-280.0,-70.0
36.84,198.86,989.54,315.0,-262.5,-192.5
36.72,198.74,989.42,280.0,-350.0,-52.5
36.6,198.74,989.42,350.0,-105.0,122.5
36.72,198.86,989.42,507.5,-122.5,87.5
36.84,198.98,989.3,525.0,-420.0,-227.5
36.84,199.1,989.18,367.5,-262.5,-402.5
36.72,199.23,988.93,402.5,-192.5,-245.0
36.6,199.23,988.69,455.0,-227.5,-122.5
36.6,199.35,988.2,-262.5,-87.5,-227.5
36.48,199.35,988.08,-577.5,-210.0,-367.5
36.23,199.35,988.32,-262.5,-525.0,-280.0
35.99,199.23,988.57,105.0,-595.0,-17.5
35.99,199.23,988.69,140.0,-595.0,192.5
36.11,199.35,988.81,157.5,-560.0,0.0
36.23,199.35,988.93,280.0,-560.0,-210.0
36.11,199.47,988.93,245.0,-507.5,-192.5
36.11,199.59,988.93,262.5,-700.0,-227.5
35.99,199.59,988.81,-175.0,-437.5,-70.0
35.87,199.47,989.05,-262.5,17.5,0.0
35.62,199.1,989.18,350.0,-612.5,-105.0
35.38,198.86,989.3,525.0,-1015.0,-175.0
35.38,198.62,989.42,280.0,-595.0,0.0
35.14,198.49,989.54,227.5,-157.5,472.5
34.89,198.49,989.66,612.5,-210.0,735.0
35.14,198.62,989.42,752.5,-595.0,542.5
35.38,198.86,989.18,420.0,-840.0,350.0
35.62,198.98,988.93,-17.5,-245.0,420.0
35.87,199.1,988.81,157.5,-105.0,402.5
36.11,199.35,988.57,455.0,-595.0,245.0
36.36,199.47,988.2,35.0,-770.0,17.5
36.72,199.47,988.08,-595.0,-577.5,-35.0
37.09,199.35,988.44,-525.0,-52.5,-87.5
37.33,199.1,988.93,87.5,-140.0,-157.5
37.58,199.1,989.05,577.5,-665.0,-455.0
37.82,199.1,989.05,315.0,-612.5,-630.0
37.94,199.1,989.3,-87.5,140.0,-560.0
37.94,198.86,989.66,262.5,157.5,-437.5
37.7,198.86,989.66,840.0,-332.5,-630.0
37.58,198.74,989.66,805.0,-437.5,-682.5
37.33,198.62,989.42,420.0,157.5,-297.5
37.09,198.62,989.3,245.0,385.0,-70.0
36.84,198.62,989.05,262.5,-332.5,-315.0
36.6,198.74,988.93,52.5,-717.5,-315.0
36.36,198.86,989.3,140.0,-140.0,35.0
36.36,198.98,989.42,647.5,-35.0,105.0
36.48,199.1,989.18,665.0,-665.0,-245.0
36.6,198.98,989.3,227.5,-560.0,-525.0
36.6,198.74,989.54,280.0,35.0,-315.0
36.36,198.49,989.79,805.0,122.5,87.5
36.48,198.37,989.66,665.0,35.0,52.5
36.48,198.37,989.66,350.0,-35.0,-157.5
36.36,198.49,989.66,682.5,0.0,-157.5
36.23,198.62,989.42,997.5,-122.5,-175.0
36.11,198.86,988.93,822.5,-612.5,-245.0
35.99,199.23,988.2,297.5,-595.0,-210.0
35.75,199.47,987.96,-210.0,52.5,-140.0
35.5,199.59,987.59,-227.5,-122.5,-70.0
35.01,199.71,987.35,-122.5,-595.0,-157.5
34.65,199.84,987.1,-17.5,-1155.0,-157.5
34.4,199.84,986.74,0.0,-1750.0,-87.5
34.53,199.71,986.74,-542.5,-1662.5,17.5
34.77,199.35,987.22,-1207.5,-385.0,420.0
35.01,198.98,988.2,-787.5,682.5,700.0
35.14,198.86,988.93,437.5,17.5,525.0
35.38,198.74,989.18,735.0,-612.5,87.5
35.5,198.62,989.42,402.5,-52.5,192.5
35.62,198.62,989.54,525.0,245.0,577.5
35.75,198.62,989.42,857.5,-280.0,367.5
35.87,198.74,989.05,525.0,-735.0,-17.5
36.11,198.86,988.69,175.0,-647.5,-122.5
36.11,199.1,988.57,245.0,-560.0,-70.0
36.23,199.23,988.2,157.5,-612.5,-122.5
36.23,199.1,988.2,-262.5,-507.5,-140.0
36.23,198.98,988.32,-262.5,-367.5,-70.0
36.11,198.86,988.69,245.0,-350.0,87.5
36.11,198.62,988.93,210.0,-245.0,175.0
36.11,198.49,989.05,210.0,-122.5,210.0
36.23,198.37,989.3,595.0,-315.0,140.0
36.23,198.37,989.3,1032.5,-612.5,0.0
36.36,198.49,988.93,595.0,-420.0,122.5
36.6,198.62,988.81,-122.5,245.0,157.5
36.6,198.74,988.81,105.0,122.5,17.5
36.72,198.86,988.69,542.5,-490.0,-262.5
36.72,198.86,988.44,245.0,-297.5,-262.5
36.6,198.86,988.32,87.5,140.0,-35.0
36.6,198.74,988.32,385.0,35.0,-210.0
36.36,198.74,988.2,437.5,-420.0,-420.0
35.75,198.74,988.2,297.5,-700.0,-245.0
35.01,198.62,988.2,192.5,-735.0,332.5
34.53,198.62,988.08,227.5,-927.5,980.0
34.53,198.62,987.96,332.5,-980.0,1225.0
34.89,198.98,987.96,490.0,-630.0,945.0
35.38,199.59,987.71,70.0,-227.5,717.5
36.11,200.08,987.59,-682.5,-192.5,420.0
36.84,200.08,987.96,-367.5,-455.0,-210.0
37.45,199.84,988.2,822.5,-437.5,-857.5
37.58,199.59,987.71,1120.0,-192.5,-1102.5
36.72,199.59,986.49,-315.0,-402.5,-1050.0
35.62,199.47,985.88,-2047.5,-647.5,-612.5
34.53,198.86,986.37,-1820.0,-490.0,577.5
34.16,198.13,987.47,-770.0,525.0,1470.0
34.53,198.01,988.08,17.5,770.0,1330.0
34.89,198.37,988.08,-87.5,175.0,612.5
35.14,198.98,988.2,-735.0,-35.0,52.5
35.14,199.35,988.69,-17.5,-122.5,105.0
35.26,199.1,989.05,0.0,35.0,752.5
35.99,198.25,989.54,-665.0,717.5,1015.0
37.33,197.27,990.15,-227.5,700.0,332.5
38.43,196.42,990.88,945.0,-245.0,-770.0
39.04,196.05,991.13,1365.0,-560.0,-1137.5
39.16,196.18,991.37,1330.0,297.5,-770.0
39.04,196.54,991.13,1260.0,840.0,-332.5
39.04,197.15,990.64,752.5,717.5,-700.0
38.92,197.52,990.27,507.5,472.5,-1277.5
38.67,197.64,989.79,262.5,560.0,-1330.0
38.55,197.52,989.54,-455.0,840.0,-1067.5
38.67,197.27,990.03,-490.0,787.5,-1190.0
38.92,197.03,991.01,840.0,665.0,-1470.0
39.53,197.15,991.86,1960.0,980.0,-1715.0
40.5,197.4,991.98,1347.5,1732.5,-2257.5
41.36,197.52,992.35,1172.5,1942.5,-3202.5
41.72,197.52,992.59,2485.0,1855.0,-3850.0
41.24,198.01,992.1,3097.5,2030.0,-4042.5
40.14,198.86,990.64,1837.5,1890.0,-4007.5
38.55,199.23,989.18,262.5,1767.5,-3587.5
36.84,198.86,988.57,-157.5,1837.5,-2695.0
35.26,198.25,988.08,350.0,1820.0,-1785.0
33.67,198.25,987.47,630.0,2485.0,-1435.0
31.72,199.23,986.37,-105.0,2572.5,-1400.0
29.4,200.45,985.15,-1347.5,1662.5,-1382.5
27.21,200.81,984.42,-2520.0,962.5,-770.0
25.86,200.08,984.78,-2677.5,1557.5,210.0
24.89,198.86,985.52,-1382.5,2187.5,665.0
24.16,198.13,985.88,-227.5,1592.5,385.0
22.94,198.13,985.52,-560.0,210.0,-87.5
21.96,198.13,985.76,-1610.0,-350.0,192.5
21.47,197.4,987.1,-910.0,350.0,1120.0
21.96,196.54,988.2,700.0,1015.0,1347.5
22.69,196.42,988.2,1260.0,402.5,-17.5
22.69,196.91,987.22,805.0,-1207.5,-1365.0
21.96,197.64,986.37,-175.0,-1907.5,-1242.5
20.98,197.88,985.88,-420.0,-1820.0,-647.5
20.25,197.88,985.39,87.5,-1977.5,-192.5
19.76,197.64,984.54,-490.0,-1715.0,-122.5
19.28,197.4,983.2,-1557.5,-2310.0,-280.0
18.54,197.27,982.22,-1942.5,-3570.0,-297.5
18.3,197.03,981.98,-2100.0,-4340.0,105.0
18.54,196.91,982.1,-2362.5,-4777.5,700.0
19.52,196.42,982.83,-3062.5,-3937.5,507.5
21.47,195.57,984.42,-3360.0,-2817.5,665.0
23.55,194.83,986.74,-2940.0,-997.5,542.5
25.62,194.59,989.18,647.5,-2100.0,-1225.0
26.96,194.96,990.64,3902.5,-4760.0,-3027.5
27.69,195.69,991.13,3517.5,-3552.5,-3692.5
27.82,196.42,990.4,1382.5,-1120.0,-3255.0
27.57,196.54,989.3,-350.0,-402.5,-2800.0
27.08,196.18,988.32,-752.5,-1032.5,-2922.5
26.11,195.44,987.59,-437.5,-2152.5,-2852.5
25.13,194.47,986.98,-717.5,-2817.5,-2187.5
24.28,193.25,987.22,-1627.5,-2555.0,-1172.5
23.55,192.03,988.2,-2135.0,-1837.5,-35.0
22.94,190.93,990.15,-1347.5,-1417.5,945.0
22.94,189.95,992.23,402.5,-1592.5,1592.5
23.3,189.47,993.93,1697.5,-1435.0,2100.0
24.16,189.22,995.03,2222.5,-595.0,2467.5
25.5,189.34,995.4,2870.0,-140.0,2345.0
26.96,190.08,994.91,3115.0,-105.0,1872.5
28.3,191.3,993.32,2450.0,0.0,1015.0
29.65,192.88,991.25,1102.5,-507.5,192.5
30.74,194.1,989.42,-630.0,-770.0,-542.5
31.72,194.83,988.69,-1557.5,-700.0,-1050.0
32.33,195.08,988.69,-1155.0,-595.0,-1365.0
32.94,195.2,989.05,-455.0,-542.5,-1312.5
33.92,195.2,989.18,-892.5,-157.5,-1662.5
34.65,194.96,989.66,-1435.0,280.0,-2415.0
35.01,194.47,990.76,-822.5,367.5,-2625.0
34.89,193.98,991.74,525.0,105.0,-2520.0
34.53,193.74,992.1,997.5,-70.0,-2397.5
33.92,193.49,991.98,752.5,-245.0,-2380.0
33.18,193.13,991.86,227.5,-297.5,-2100.0
32.21,192.76,992.1,665.0,-332.5,-1487.5
31.48,192.52,992.23,1102.5,17.5,-1032.5
30.74,192.52,991.86,1015.0,52.5,-875.0
29.52,192.64,991.37,490.0,0.0,-770.0
28.06,192.64,990.88,297.5,122.5,-87.5
26.96,192.76,990.4,-280.0,962.5,1470.0
26.84,192.88,990.15,-1942.5,2170.0,2485.0
27.82,193.13,990.88,-2450.0,1610.0,1732.5
28.79,193.13,992.23,-910.0,70.0,332.5
29.52,193.0,993.32,1172.5,-175.0,-297.5
29.77,193.37,993.45,1155.0,1540.0,-315.0
29.16,193.98,992.59,525.0,2012.5,-927.5
28.06,194.1,991.37,542.5,262.5,-1540.0
26.47,193.13,990.4,700.0,-367.5,-1242.5
25.01,191.54,989.79,140.0,175.0,507.5
23.91,190.08,989.42,-437.5,455.0,1925.0
23.06,188.86,989.42,-350.0,-455.0,2222.5
22.45,188.0,989.3,455.0,-1785.0,2677.5
22.45,187.64,988.81,262.5,-1487.5,3587.5
23.06,187.88,988.2,-770.0,-962.5,4042.5
24.52,188.73,987.96,-1277.5,-1172.5,3342.5
26.23,189.83,988.08,-1260.0,-1592.5,1995.0
27.94,190.93,988.69,-875.0,-1662.5,1207.5
30.01,192.27,989.66,-910.0,-507.5,402.5
31.84,193.25,990.64,-787.5,-105.0,-1032.5
33.06,193.49,991.49,-105.0,-787.5,-1977.5
33.92,193.25,992.35,315.0,-490.0,-1977.5
34.65,193.0,992.84,647.5,420.0,-1785.0
35.5,193.0,992.96,700.0,612.5,-2345.0
35.99,193.0,992.59,332.5,192.5,-3482.5
35.87,192.64,992.35,-175.0,70.0,-3920.0
35.14,192.03,992.35,-420.0,350.0,-3570.0
33.92,191.17,992.59,-245.0,420.0,-2800.0
32.82,190.32,992.96,192.5,455.0,-2222.5
31.96,189.83,993.45,910.0,437.5,-1907.5
31.48,189.22,993.81,805.0,210.0,-2030.0
31.11,188.49,994.3,455.0,402.5,-2082.5
30.5,187.64,994.91,1522.5,472.5,-1680.0
29.65,187.39,995.15,2887.5,945.0,-962.5
28.79,188.0,994.3,2642.5,1347.5,-542.5
27.69,188.98,992.84,770.0,962.5,-700.0
26.6,189.59,991.86,-17.5,17.5,-770.0
25.5,189.47,991.25,315.0,52.5,-35.0
24.77,189.22,990.88,-52.5,1102.5,1032.5
24.4,189.22,990.4,-822.5,1487.5,1260.0
23.91,189.34,990.15,-840.0,647.5,752.5
23.55,189.34,990.52,-472.5,210.0,630.0
23.3,188.98,991.25,-665.0,927.5,1137.5
23.42,188.37,992.35,-210.0,1645.0,1260.0
23.42,187.51,993.32,945.0,1207.5,980.0
23.42,187.15,993.93,1750.0,910.0,700.0
23.18,187.15,994.3,1610.0,1382.5,875.0
22.57,187.39,994.3,1662.5,1505.0,910.0
21.72,188.0,993.69,1995.0,490.0,857.5
20.98,188.73,992.84,1435.0,-437.5,822.5
20.25,189.47,991.86,805.0,-525.0,980.0
19.76,190.08,991.13,192.5,-542.5,1242.5
19.28,190.32,990.64,-385.0,-525.0,1330.0
19.03,190.32,990.64,-472.5,-612.5,1102.5
18.91,190.08,991.13,-17.5,-1627.5,717.5
18.79,189.59,991.86,350.0,-2135.0,945.0
19.15,188.98,993.08,700.0,-1295.0,1470.0
20.01,188.61,994.3,1365.0,-822.5,1417.5
21.23,188.73,995.28,2240.0,-1102.5,647.5
22.2,189.1,995.76,3045.0,-1067.5,17.5
22.94,189.83,995.52,3605.0,-157.5,-87.5
22.94,191.3,994.18,3202.5,297.5,-455.0
22.2,192.64,991.98,1715.0,-402.5,-840.0
21.11,193.74,989.66,367.5,-1260.0,-770.0
19.89,194.1,988.08,-787.5,-1102.5,70.0
19.15,193.74,987.22,-1715.0,-507.5,927.5
18.91,192.64,987.1,-1942.5,-420.0,1452.5
19.03,191.54,987.71,-1207.5,-1120.0,1540.0
19.52,190.56,988.69,-700.0,-1120.0,1785.0
20.01,190.08,990.15,-122.5,-682.5,1960.0
20.62,190.08,991.13,1172.5,-752.5,2240.0
21.35,190.69,991.25,1207.5,-665.0,2432.5
22.2,191.78,991.13,262.5,-315.0,2187.5
23.3,192.76,991.01,-157.5,-157.5,1522.5
24.28,193.61,990.88,17.5,-490.0,805.0
25.01,194.1,990.76,367.5,-822.5,227.5
25.62,194.47,990.52,192.5,-840.0,-245.0
26.23,194.59,990.27,-647.5,-525.0,-717.5
26.35,194.59,990.52,-700.0,-472.5,-1050.0
26.11,194.35,991.01,-35.0,-612.5,-1242.5
25.62,193.86,991.37,175.0,-525.0,-875.0
25.25,193.25,991.86,-472.5,420.0,-245.0
25.13,192.52,992.59,-157.5,875.0,157.5
25.13,192.03,993.32,1015.0,17.5,87.5
25.38,191.78,993.81,1295.0,17.5,70.0
25.62,191.78,994.18,1050.0,945.0,315.0
25.99,192.03,994.54,1505.0,1137.5,315.0
26.47,192.52,994.42,1890.0,735.0,-175.0
26.84,193.25,994.06,1802.5,927.5,-560.0
26.84,193.98,993.2,1400.0,1207.5,-822.5
26.6,194.71,991.98,875.0,717.5,-1137.5
26.11,195.2,990.64,245.0,-227.5,-1645.0
25.38,195.32,989.79,-665.0,-472.5,-1662.5
24.64,195.08,989.66,-1207.5,227.5,-1190.0
23.67,194.47,990.15,-840.0,402.5,-822.5
22.69,193.74,990.76,-245.0,105.0,-507.5
21.96,193.13,991.62,192.5,70.0,-245.0
21.23,192.52,992.47,980.0,-245.0,175.0
20.74,192.27,993.2,1172.5,17.5,577.5
20.37,192.03,993.69,1452.5,420.0,840.0
20.25,192.03,993.81,1872.5,105.0,857.5
20.25,192.52,993.57,1907.5,-367.5,612.5
20.25,193.0,992.84,1522.5,-122.5,682.5
20.37,193.61,992.1,945.0,315.0,875.0
20.74,194.22,991.37,770.0,350.0,682.5
21.11,194.96,990.52,682.5,-280.0,140.0
21.59,195.44,989.79,-420.0,-315.0,-245.0
22.2,195.81,989.91,-1120.0,122.5,-455.0
22.69,195.69,990.64,-490.0,140.0,-542.5
23.18,195.69,991.74,840.0,17.5,-857.5
23.3,195.69,992.35,1452.5,385.0,-1207.5
23.18,195.69,992.23,1067.5,577.5,-1312.5
22.57,195.69,991.86,630.0,192.5,-1417.5
21.47,195.57,991.49,577.5,-210.0,-1172.5
20.37,195.32,991.13,350.0,-35.0,-332.5
19.52,195.2,991.01,105.0,70.0,105.0
18.79,195.08,990.88,367.5,-332.5,70.0
18.3,195.2,990.76,647.5,-490.0,245.0
18.06,195.32,990.52,577.5,-315.0,507.5
17.93,195.69,990.15,350.0,-560.0,455.0
18.06,196.05,989.79,70.0,-647.5,175.0
18.06,196.42,989.42,-140.0,-665.0,87.5
18.3,196.66,989.3,-490.0,-647.5,-52.5
18.54,196.66,989.42,-560.0,-595.0,-192.5
18.67,196.54,989.79,-297.5,-472.5,-210.0
18.67,196.42,990.03,140.0,-577.5,-157.5
18.54,196.3,990.15,-35.0,-560.0,-227.5
18.42,196.18,990.27,-227.5,-490.0,-192.5
18.18,195.81,990.52,-175.0,-455.0,70.0
17.81,195.57,990.88,227.5,-385.0,245.0
17.57,195.32,991.01,507.5,-647.5,472.5
17.57,195.2,990.64,245.0,-892.5,507.5
17.57,194.96,990.64,-140.0,-980.0,507.5
17.69,194.96,990.88,192.5,-752.5,577.5
17.93,194.96,991.25,892.5,-385.0,700.0
18.3,195.44,991.01,857.5,-297.5,385.0
18.54,196.05,990.15,210.0,-892.5,52.5
18.79,196.54,989.54,-612.5,-1155.0,-210.0
18.79,196.91,989.42,-630.0,-1067.5,-157.5
18.79,196.91,989.3,-560.0,-1312.5,-87.5
18.91,196.66,989.42,-647.5,-1505.0,-437.5
19.03,196.18,990.03,-560.0,-1102.5,-437.5
18.91,195.2,991.01,-245.0,-507.5,-87.5
18.79,194.22,991.98,595.0,-367.5,105.0
18.67,193.49,992.84,1400.0,-227.5,367.5
18.54,193.25,993.08,1487.5,157.5,752.5
18.54,193.37,992.59,1207.5,280.0,1050.0
18.79,193.74,991.86,805.0,-87.5,962.5
19.15,194.22,991.37,455.0,-245.0,770.0
19.64,194.71,991.01,140.0,-175.0,682.5
20.13,195.08,990.88,35.0,-262.5,262.5
20.62,195.44,991.01,297.5,-542.5,-52.5
20.86,195.44,991.01,402.5,-262.5,-52.5
21.11,195.57,991.01,507.5,-297.5,0.0
21.35,195.57,990.88,402.5,-332.5,-157.5
21.47,195.69,990.88,472.5,-367.5,-332.5
21.59,195.93,990.88,402.5,-490.0,-455.0
21.72,196.05,990.64,0.0,-367.5,-752.5
21.59,196.05,990.88,-87.5,-472.5,-997.5
21.35,195.93,991.13,192.5,-490.0,-962.5
20.98,195.69,991.49,630.0,-175.0,-717.5
20.5,195.44,991.62,770.0,-210.0,-420.0
20.01,195.08,991.62,542.5,-35.0,-175.0
19.76,194.96,991.62,735.0,52.5,192.5
19.4,194.96,991.37,945.0,-122.5,455.0
19.4,195.08,991.13,612.5,-122.5,472.5
19.52,195.44,990.64,227.5,-157.5,350.0
19.76,195.57,990.4,70.0,-297.5,210.0
20.13,195.69,990.27,-192.5,-105.0,87.5
20.37,195.81,990.4,-17.5,-87.5,-52.5
20.62,195.93,990.52,402.5,-297.5,-175.0
20.74,195.93,990.4,507.5,-210.0,-332.5
20.98,196.05,990.15,17.5,-87.5,-210.0
21.11,196.18,990.27,-315.0,-70.0,-455.0
20.98,196.3,990.52,210.0,-402.5,-700.0
20.74,196.42,990.52,367.5,-612.5,-735.0
20.5,196.42,990.52,-17.5,-612.5,-647.5
20.25,196.18,990.76,-262.5,-402.5,-612.5
20.01,195.81,991.25,175.0,-420.0,-542.5
19.76,195.32,991.86,857.5,-280.0,-490.0
19.4,195.08,992.1,1067.5,105.0,-262.5
19.03,194.96,991.98,927.5,297.5,105.0
18.67,195.2,991.49,700.0,105.0,350.0
18.54,195.44,991.01,350.0,-367.5,420.0
18.79,195.69,990.88,122.5,-490.0,280.0
19.03,195.93,990.64,105.0,-332.5,140.0
19.28,195.93,990.64,262.5,-542.5,17.5
19.64,196.18,990.52,105.0,-262.5,-227.5
19.64,196.18,990.52,210.0,-332.5,-437.5
19.64,196.3,990.27,105.0,-717.5,-420.0
19.64,196.42,990.27,-280.0,-490.0,-280.0
19.64,196.3,990.4,-455.0,-367.5,-297.5
19.4,196.18,990.64,-140.0,-910.0,-507.5
19.03,196.18,991.01,315.0,-1120.0,-490.0
18.42,195.81,991.37,402.5,-875.0,-105.0
18.06,195.44,991.74,297.5,-525.0,385.0
17.81,194.96,992.35,455.0,-245.0,595.0
17.57,194.71,992.71,1155.0,-140.0,682.5
17.57,194.71,992.71,1452.5,-192.5,735.0
17.69,194.83,992.23,997.5,105.0,857.5
17.81,195.2,991.62,350.0,262.5,962.5
18.18,195.44,991.13,35.0,-122.5,857.5
18.67,195.69,990.88,87.5,-402.5,525.0
19.28,195.93,990.88,105.0,-420.0,245.0
19.76,196.18,991.01,245.0,-542.5,-35.0
20.13,196.3,991.13,262.5,-560.0,-227.5
20.25,196.42,991.25,420.0,-455.0,-210.0
20.25,196.42,991.25,770.0,-157.5,-52.5
20.25,196.54,991.01,682.5,-52.5,-140.0
20.13,196.79,990.4,210.0,-525.0,-437.5
20.01,196.91,989.91,-665.0,-612.5,-437.5
19.76,196.79,990.03,-857.5,-385.0,-332.5
19.64,196.66,990.64,87.5,-560.0,-280.0
19.52,196.42,991.13,647.5,-787.5,-332.5
19.4,196.18,991.62,420.0,-315.0,-350.0
19.15,195.93,991.98,735.0,35.0,-105.0
18.79,195.81,992.1,1190.0,-105.0,262.5
18.54,195.69,991.62,892.5,-35.0,525.0
18.67,195.81,991.01,52.5,367.5,595.0
18.91,195.93,990.64,35.0,-35.0,280.0
19.15,196.18,990.4,52.5,-577.5,17.5
19.4,196.42,990.4,-210.0,-560.0,-70.0
19.52,196.54,990.64,-87.5,-367.5,0.0
19.89,196.66,990.88,262.5,-245.0,52.5
20.25,196.66,991.01,332.5,35.0,-210.0
20.37,196.66,990.88,525.0,-280.0,-665.0
20.25,196.79,990.52,507.5,-717.5,-857.5
20.01,196.79,990.15,-17.5,-630.0,-700.0
19.64,196.91,989.91,-420.0,-630.0,-525.0
19.4,196.66,989.91,-612.5,-735.0,-455.0
19.03,196.54,990.4,-280.0,-752.5,-507.5
18.67,196.3,991.13,367.5,-420.0,-280.0
18.3,195.93,991.49,612.5,17.5,52.5
17.93,195.69,991.62,595.0,-87.5,210.0
17.57,195.44,991.37,735.0,-402.5,332.5
17.57,195.2,991.25,472.5,-140.0,770.0
17.69,195.32,991.13,297.5,17.5,805.0
18.06,195.57,990.76,402.5,-525.0,595.0
18.54,195.81,990.64,-17.5,-612.5,315.0
18.91,195.93,990.88,175.0,-315.0,192.5
19.15,196.18,990.88,700.0,-385.0,175.0
19.4,196.42,990.64,647.5,-315.0,-52.5
19.52,196.54,990.03,280.0,-315.0,-192.5
19.52,196.66,989.54,-315.0,-577.5,-350.0
19.28,196.66,989.42,-630.0,-770.0,-420.0
19.28,196.42,989.54,-560.0,-962.5,-245.0
19.28,196.18,990.15,-455.0,-910.0,-140.0
19.28,196.05,990.88,-210.0,-787.5,-192.5
19.28,195.81,991.86,577.5,-962.5,-367.5
19.15,195.57,992.59,1487.5,-840.0,-350.0
18.79,195.2,992.84,1470.0,-157.5,0.0
18.18,194.83,992.47,1085.0,105.0,332.5
17.69,194.59,991.98,962.5,-210.0,752.5
17.32,194.47,991.49,647.5,-315.0,1225.0
17.57,194.59,991.25,245.0,-35.0,1242.5
18.06,194.96,991.01,542.5,-210.0,980.0
18.54,195.44,990.88,700.0,-367.5,647.5
19.03,196.05,990.4,560.0,-367.5,525.0
19.52,196.66,990.03,262.5,-105.0,437.5
20.13,197.15,989.54,70.0,17.5,122.5
20.5,197.64,988.93,-210.0,-350.0,-245.0
20.86,197.88,988.32,-1050.0,-402.5,-385.0
20.98,197.88,988.32,-1365.0,-560.0,-490.0
20.98,197.64,988.81,-910.0,-665.0,-490.0
21.23,197.4,989.66,-682.5,-280.0,-420.0
21.35,196.91,990.4,-595.0,227.5,-437.5
21.23,196.42,991.25,122.5,-35.0,-700.0
20.98,196.05,991.74,980.0,-560.0,-857.5
20.5,195.93,991.86,910.0,-175.0,-595.0
19.76,195.69,991.62,367.5,402.5,-192.5
19.15,195.44,991.37,70.0,0.0,52.5
18.54,195.2,991.37,175.0,-560.0,105.0
18.18,194.96,991.62,315.0,-507.5,437.5
18.06,194.96,991.86,490.0,-210.0,805.0
18.06,194.96,992.1,770.0,-245.0,787.5
18.42,195.08,992.35,997.5,-560.0,542.5
18.79,195.2,992.35,1015.0,-490.0,262.5
19.03,195.2,992.23,980.0,122.5,350.0
19.28,195.32,991.74,962.5,280.0,455.0
19.52,195.44,991.13,525.0,87.5,332.5
19.89,195.81,990.52,-175.0,-245.0,17.5
20.01,196.18,990.27,-157.5,-630.0,-157.5
20.25,196.42,990.27,105.0,-717.5,-157.5
20.5,196.66,990.4,140.0,-560.0,-192.5
20.86,196.91,990.27,-262.5,-630.0,-682.5
20.98,196.66,990.64,-175.0,-945.0,-1067.5
20.98,196.3,991.13,105.0,-612.5,-892.5
20.74,195.93,991.62,560.0,-157.5,-612.5
20.5,195.69,991.86,787.5,-210.0,-402.5
20.25,195.44,991.86,822.5,-420.0,-350.0
20.01,195.69,991.86,857.5,-437.5,-227.5
19.89,195.93,991.86,752.5,-262.5,-87.5
20.01,196.18,991.62,647.5,35.0,-245.0
20.13,196.54,991.37,577.5,70.0,-542.5
20.01,196.79,991.25,385.0,140.0,-735.0
19.64,196.91,991.01,455.0,52.5,-612.5
19.28,196.79,990.64,227.5,-70.0,-420.0
19.03,196.42,990.52,35.0,-105.0,-140.0
19.03,195.93,990.52,-87.5,122.5,105.0
19.28,195.69,990.76,70.0,192.5,-105.0
19.52,195.69,991.01,332.5,-472.5,-367.5
19.89,195.93,991.37,350.0,-420.0,-350.0
20.25,196.18,991.86,525.0,35.0,-315.0
20.74,196.66,992.1,1067.5,70.0,-682.5
20.98,196.91,992.1,1470.0,-420.0,-1295.0
20.86,197.27,991.62,1190.0,-332.5,-1592.5
20.25,197.4,990.76,280.0,17.5,-1435.0
19.28,197.4,990.15,-227.5,-367.5,-1172.5
18.18,197.03,989.91,-122.5,-682.5,-822.5
17.32,196.54,990.03,-297.5,-350.0,-227.5
16.47,195.93,990.4,-315.0,-70.0,210.0
15.74,195.69,990.88,420.0,-542.5,420.0
15.25,195.44,991.13,1050.0,-1050.0,752.5
15.25,195.44,991.37,857.5,-525.0,1137.5
15.62,195.57,991.62,595.0,315.0,1260.0
16.23,195.93,991.62,1085.0,87.5,1032.5
16.84,196.66,991.37,1067.5,-367.5,542.5
17.69,197.27,990.76,455.0,-630.0,-35.0
18.3,197.88,990.4,227.5,-735.0,-332.5
18.79,198.13,990.27,227.5,-490.0,-490.0
18.91,198.25,989.91,175.0,-367.5,-752.5
18.79,198.25,989.66,-210.0,-577.5,-1015.0
18.42,197.88,989.66,-472.5,-367.5,-910.0
17.69,197.27,989.91,-157.5,-192.5,-245.0
16.96,196.79,990.03,70.0,-175.0,402.5
16.47,196.54,990.15,210.0,-420.0,665.0
16.23,196.66,990.15,420.0,-980.0,770.0
16.35,196.91,990.27,262.5,-875.0,787.5
16.59,197.27,990.52,140.0,-525.0,682.5
16.96,197.52,990.64,262.5,-385.0,507.5
17.32,197.64,990.52,385.0,-402.5,157.5
17.69,197.88,990.27,402.5,-612.5,-262.5
17.93,197.88,989.91,297.5,-822.5,-297.5
18.06,197.64,989.42,-157.5,-822.5,-192.5
18.3,197.64,989.42,-612.5,-542.5,-140.0
18.54,197.52,989.91,-472.5,-297.5,-210.0
18.54,197.4,990.4,-52.5,-350.0,-157.5
18.67,197.27,990.88,157.5,-402.5,-227.5
18.54,197.15,991.13,490.0,-472.5,-315.0
18.3,197.03,991.37,875.0,-385.0,-192.5
17.93,196.91,991.13,822.5,-297.5,105.0
17.57,196.91,990.88,560.0,-507.5,210.0
17.32,196.91,990.52,210.0,-630.0,332.5
17.08,196.91,990.4,52.5,-437.5,560.0
17.08,196.79,990.27,245.0,-420.0,682.5
17.2,196.79,990.15,245.0,-805.0,472.5
17.57,196.79,990.15,210.0,-962.5,227.5
17.57,196.91,990.15,175.0,-402.5,402.5
17.69,197.15,990.15,385.0,-437.5,507.5
17.57,197.27,989.91,402.5,-1015.0,245.0
17.57,197.4,989.54,-122.5,-1120.0,227.5
17.57,197.27,989.54,-542.5,-297.5,717.5
17.81,197.15,989.79,-455.0,52.5,840.0
18.3,197.03,990.03,105.0,-752.5,420.0
19.03,197.03,990.27,-17.5,-945.0,87.5
19.76,197.15,990.64,35.0,-682.5,-262.5
20.25,197.27,991.01,455.0,-770.0,-367.5
20.5,197.4,991.25,367.5,-787.5,-665.0
20.86,197.15,991.62,332.5,-420.0,-630.0
21.23,196.54,991.98,910.0,-157.5,-227.5
21.84,196.18,992.1,927.5,192.5,-245.0
22.57,195.93,992.1,752.5,402.5,-840.0
22.81,196.3,992.1,1015.0,105.0,-1260.0
22.69,196.91,991.74,1067.5,-175.0,-1470.0
22.45,197.4,991.37,682.5,-52.5,-1312.5
22.2,198.01,990.88,385.0,0.0,-1172.5
21.72,198.25,990.27,332.5,-105.0,-1225.0
21.35,198.37,989.91,0.0,210.0,-1312.5
20.74,198.13,989.42,-332.5,315.0,-1312.5
19.89,197.52,989.3,-490.0,87.5,-1172.5
19.03,196.79,989.66,-490.0,227.5,-665.0
18.18,196.05,990.4,-262.5,560.0,87.5
17.81,195.57,991.37,17.5,682.5,700.0
18.06,195.44,992.35,630.0,875.0,665.0
18.67,195.69,993.2,1732.5,647.5,280.0
19.4,196.3,993.32,2432.5,787.5,17.5
19.89,197.52,992.35,2117.5,805.0,-525.0
20.01,198.74,990.52,1260.0,-262.5,-1400.0
19.52,199.71,988.57,-227.5,-717.5,-1890.0
18.54,199.84,987.35,-1312.5,-630.0,-1750.0
17.08,199.35,986.49,-1645.0,-1295.0,-1260.0
15.62,198.25,986.37,-1890.0,-1785.0,-490.0
14.4,196.91,987.22,-1995.0,-1295.0,402.5
13.18,195.69,988.69,-1015.0,-752.5,1242.5
12.2,194.83,990.27,437.5,-1050.0,1750.0
11.59,194.35,991.37,997.5,-857.5,2152.5
11.22,193.98,992.23,980.0,-227.5,2677.5
11.1,193.98,992.59,1540.0,-105.0,3062.5
11.35,194.22,992.47,2012.5,-437.5,3220.0
11.96,194.83,991.86,1312.5,-420.0,3272.5
12.93,195.69,991.01,507.5,-437.5,3097.5
14.15,196.42,990.4,385.0,-805.0,2572.5
15.74,197.27,989.91,420.0,-997.5,1907.5
17.32,197.88,989.42,87.5,-752.5,1172.5
18.42,198.37,988.93,-87.5,-1050.0,472.5
19.15,198.74,988.44,-210.0,-1172.5,87.5
19.52,198.98,987.96,-770.0,-910.0,-122.5
19.76,198.86,987.71,-1505.0,-1120.0,-245.0
20.01,198.37,988.2,-1715.0,-1347.5,-192.5
20.37,197.64,989.66,-1015.0,-822.5,0.0
20.74,197.03,991.25,280.0,87.5,280.0
21.23,196.91,992.35,1242.5,507.5,105.0
21.84,197.15,992.59,1522.5,52.5,-385.0
22.45,197.64,992.35,945.0,52.5,-787.5
22.81,197.88,992.1,490.0,437.5,-805.0
23.18,198.25,991.86,647.5,385.0,-910.0
23.55,198.62,991.25,630.0,-140.0,-1417.5
23.55,198.62,990.52,227.5,-455.0,-1977.5
23.18,198.62,989.91,-70.0,-402.5,-2012.5
22.33,198.49,989.42,-280.0,-315.0,-1627.5
21.59,198.25,989.18,-717.5,-402.5,-1452.5
20.98,197.52,989.42,-1085.0,-332.5,-1347.5
20.37,196.54,990.27,-700.0,17.5,-945.0
19.89,195.69,991.25,175.0,210.0,-437.5
19.52,195.2,992.1,735.0,350.0,-140.0
19.4,195.08,992.84,1015.0,560.0,-140.0
19.28,195.08,993.57,1662.5,717.5,-35.0
19.52,195.32,993.57,2100.0,892.5,-105.0
19.52,195.81,992.84,1750.0,875.0,-385.0
19.4,196.42,991.62,980.0,525.0,-595.0
19.03,196.91,990.64,315.0,-52.5,-525.0
18.79,197.27,990.03,-210.0,-87.5,-385.0
18.91,197.4,989.91,-297.5,-17.5,-367.5
19.28,197.4,990.15,-227.5,35.0,-700.0
19.76,197.15,990.76,332.5,52.5,-1400.0
19.89,196.91,991.13,840.0,70.0,-1627.5
19.76,197.03,991.13,822.5,402.5,-1522.5
19.4,197.4,990.88,455.0,612.5,-1487.5
19.03,197.76,990.4,175.0,350.0,-1365.0
18.54,198.01,990.15,-262.5,490.0,-1312.5
18.18,198.13,990.03,-17.5,-52.5,-1750.0
17.69,197.88,989.91,280.0,-577.5,-1715.0
17.08,197.52,989.79,-350.0,350.0,-1295.0
16.23,197.15,989.79,-367.5,542.5,-892.5
15.13,196.66,989.66,52.5,-87.5,-595.0
13.91,196.3,989.3,-70.0,-647.5,-227.5
12.93,196.05,988.93,-630.0,-770.0,577.5
12.69,195.93,989.3,-1190.0,-490.0,1225.0
13.3,195.69,990.27,-665.0,-297.5,1067.5
14.52,195.44,991.37,577.5,-595.0,227.5
15.86,195.69,991.98,1295.0,-122.5,-507.5
17.08,196.3,992.23,1207.5,822.5,-1207.5
17.81,197.03,991.86,1260.0,927.5,-2117.5
17.81,197.52,991.13,787.5,490.0,-2677.5
17.45,197.76,990.27,-227.5,630.0,-2747.5
16.59,197.52,989.66,-630.0,507.5,-2362.5
15.37,197.15,989.42,-875.0,-52.5,-1802.5
14.27,196.66,989.79,-927.5,-507.5,-1487.5
13.05,195.93,990.76,-210.0,-700.0,-1050.0
11.96,195.44,991.98,945.0,-297.5,-245.0
10.98,194.96,992.59,1312.5,262.5,315.0
10.25,194.71,992.47,1137.5,-70.0,402.5
9.64,194.35,992.23,1365.0,-717.5,525.0
9.03,194.47,991.86,1575.0,-560.0,1032.5
8.78,194.96,990.88,1172.5,-420.0,1435.0
9.03,195.69,989.91,-52.5,-332.5,1172.5
9.52,196.18,989.42,-665.0,-577.5,315.0
9.76,196.42,989.42,-350.0,-770.0,-122.5
10.13,196.18,989.66,-297.5,-227.5,105.0
10.25,195.81,989.91,-525.0,227.5,280.0
10.13,195.44,990.52,-280.0,-350.0,0.0
9.76,194.71,991.62,455.0,-630.0,245.0
9.03,193.98,992.71,1312.5,280.0,1242.5
8.17,193.86,992.96,1942.5,682.5,2100.0
7.32,194.22,992.35,1557.5,-297.5,2485.0
7.2,194.96,991.49,647.5,-1085.0,2747.5
8.05,195.57,991.13,0.0,-490.0,2992.5
9.64,196.18,991.37,227.5,402.5,2362.5
11.47,197.15,991.37,1085.0,297.5,822.5
12.81,198.13,990.76,822.5,-245.0,-770.0
13.42,198.74,990.15,-157.5,-332.5,-1382.5
13.54,198.62,990.15,-490.0,-262.5,-1137.5
13.54,197.88,990.27,-122.5,-402.5,-752.5
13.54,196.91,990.64,87.5,-577.5,-647.5
13.3,196.3,990.88,402.5,-612.5,-630.0
12.57,196.3,990.88,945.0,-700.0,-210.0
11.47,196.91,990.4,892.5,-787.5,367.5
10.49,197.52,989.42,-297.5,-1172.5,770.0
10.0,197.88,989.18,-1242.5,-1487.5,1032.5
10.49,197.64,990.03,-630.0,-910.0,962.5
11.35,197.4,991.01,245.0,-175.0,595.0
12.2,197.15,991.74,420.0,17.5,-140.0
12.69,196.66,992.35,612.5,-105.0,-700.0
12.81,196.42,993.08,1470.0,157.5,-367.5
12.44,196.42,992.96,1890.0,770.0,192.5
12.2,196.66,991.86,1260.0,332.5,262.5
11.83,197.15,990.4,280.0,-717.5,-35.0
11.35,197.27,989.18,-420.0,-1330.0,-87.5
10.61,197.4,988.57,-927.5,-1487.5,280.0
10.0,197.4,988.57,-1032.5,-1610.0,682.5
9.39,197.4,988.93,-1015.0,-1435.0,1015.0
9.15,197.4,989.79,-332.5,-1365.0,1242.5
9.39,197.27,990.64,70.0,-1190.0,1557.5
10.37,197.15,991.25,87.5,-752.5,1400.0
11.96,196.91,991.86,210.0,-402.5,1067.5
13.66,196.91,992.47,735.0,280.0,507.5
15.37,197.4,992.47,1207.5,630.0,-140.0
16.35,198.37,991.62,787.5,175.0,-1085.0
16.84,199.35,990.27,-350.0,-840.0,-1925.0
16.96,199.35,989.66,-1032.5,-1400.0,-2065.0
16.96,198.62,990.03,-1050.0,-892.5,-1820.0
16.59,197.64,990.88,-665.0,-122.5,-1995.0
15.74,196.54,991.98,140.0,-350.0,-2187.5
14.03,195.44,992.96,875.0,-437.5,-1575.0
11.96,194.59,993.81,1242.5,385.0,-105.0
10.0,194.1,994.06,1277.5,857.5,1470.0
8.54,193.86,994.06,1312.5,350.0,2310.0
8.05,193.98,994.18,1505.0,35.0,2642.5
8.3,194.22,994.3,1662.5,157.5,2642.5
9.03,194.71,994.06,1697.5,140.0,2362.5
9.88,195.69,993.69,2100.0,-227.5,1820.0
10.98,196.79,992.59,2117.5,-577.5,1312.5
12.32,197.76,991.13,910.0,-875.0,822.5
13.91,198.49,990.15,-525.0,-542.5,17.5
15.25,198.74,989.91,-560.0,-315.0,-980.0
16.1,198.86,989.91,52.5,-682.5,-1610.0
16.35,198.86,990.03,-192.5,-227.5,-1557.5
16.23,198.62,990.4,-385.0,717.5,-1365.0
15.62,198.25,991.01,385.0,752.5,-1365.0
14.64,198.01,991.37,752.5,612.5,-1207.5
13.18,197.76,991.37,175.0,787.5,-612.5
11.22,197.4,991.49,157.5,682.5,437.5
9.52,197.4,991.49,665.0,70.0,1592.5
8.17,197.64,991.01,577.5,-892.5,2362.5
7.81,198.13,990.64,105.0,-1347.5,2642.5
8.78,198.49,990.64,0.0,-892.5,2310.0
10.37,198.86,990.64,315.0,-140.0,1522.5
12.32,199.1,990.52,402.5,210.0,402.5
14.03,199.47,990.15,-157.5,437.5,-735.0
15.13,199.71,989.79,-455.0,17.5,-1522.5
15.49,199.71,989.54,-787.5,-560.0,-1732.5
15.37,199.35,989.66,-1120.0,-595.0,-1400.0
14.88,198.62,990.4,-577.5,-735.0,-927.5
14.4,198.01,991.01,420.0,-1155.0,-595.0
14.03,197.52,991.37,822.5,-1102.5,-420.0
13.42,197.4,991.37,577.5,-787.5,-245.0
12.93,197.4,991.62,332.5,-577.5,87.5
12.57,197.4,992.1,350.0,-157.5,87.5
12.44,197.4,992.59,927.5,210.0,-52.5
12.2,197.52,992.59,1225.0,402.5,-35.0
11.96,197.64,992.23,630.0,455.0,-52.5
11.83,197.76,991.74,612.5,70.0,-52.5
11.47,197.88,991.25,910.0,-315.0,157.5
11.47,198.13,990.64,245.0,-122.5,437.5
11.59,198.49,990.15,-542.5,-87.5,122.5
11.59,198.74,990.03,-245.0,-682.5,-245.0
11.47,198.74,990.15,140.0,-892.5,-122.5
11.59,198.62,990.15,-105.0,-332.5,227.5
11.83,198.49,990.4,-455.0,-227.5,175.0
12.44,198.13,990.88,140.0,-717.5,-262.5
12.93,198.13,991.37,647.5,-420.0,-560.0
13.42,198.25,991.74,525.0,490.0,-542.5
13.42,198.62,991.62,595.0,437.5,-857.5
13.18,198.98,991.13,630.0,-437.5,-1155.0
12.69,199.1,990.4,35.0,-682.5,-1102.5
11.96,199.1,990.03,-752.5,-227.5,-647.5
11.1,198.49,990.03,-770.0,-385.0,-245.0
10.61,197.88,990.4,-455.0,-665.0,35.0
10.25,197.15,991.13,-245.0,-227.5,385.0
10.13,196.79,991.86,280.0,140.0,665.0
10.13,196.54,992.59,892.5,315.0,840.0
10.25,196.66,992.84,1102.5,297.5,735.0
10.61,197.03,992.59,997.5,175.0,490.0
10.98,197.4,992.35,822.5,227.5,315.0
11.35,197.76,991.86,612.5,192.5,140.0
11.47,198.13,991.25,245.0,-157.5,-297.5
11.47,198.37,990.64,87.5,-595.0,-647.5
11.22,198.62,990.27,-280.0,-577.5,-507.5
10.98,198.49,990.15,-770.0,-420.0,-262.5
10.74,198.13,990.64,-437.5,-560.0,-210.0
10.61,197.76,991.37,262.5,-630.0,-245.0
10.49,197.4,991.98,822.5,-122.5,-140.0
10.37,197.4,992.1,945.0,-122.5,-105.0
10.0,197.4,992.1,805.0,-525.0,-122.5
9.52,197.4,991.86,507.5,-507.5,210.0
9.27,197.52,991.86,332.5,-122.5,507.5
8.91,197.64,991.62,472.5,-577.5,577.5
8.78,197.64,991.49,857.5,-787.5,525.0
8.66,197.64,991.01,612.5,-490.0,700.0
8.66,197.76,990.4,-70.0,-612.5,700.0
8.91,197.64,990.15,-385.0,-665.0,630.0
9.15,197.64,990.52,-175.0,-367.5,752.5
9.52,197.76,990.76,227.5,-87.5,787.5
10.0,197.88,990.88,70.0,-420.0,367.5
10.49,197.88,991.13,-35.0,-630.0,-35.0
10.86,197.64,991.62,560.0,-490.0,-17.5
11.1,197.64,991.74,1225.0,-280.0,122.5
11.47,197.88,991.37,647.5,-52.5,-105.0
11.71,198.01,991.01,87.5,-105.0,-472.5
11.71,198.01,990.88,297.5,-332.5,-612.5
11.47,197.88,990.88,577.5,-350.0,-367.5
11.35,197.76,990.88,350.0,-70.0,-70.0
11.22,197.76,990.88,105.0,87.5,-122.5
10.98,197.76,991.13,630.0,-332.5,-350.0
10.74,197.88,991.25,997.5,-525.0,-227.5
10.25,197.88,991.01,682.5,-192.5,52.5
9.88,197.88,990.64,490.0,-280.0,245.0
9.76,198.01,990.4,507.5,-665.0,280.0
9.76,198.13,990.15,175.0,-490.0,315.0
9.88,198.13,990.15,122.5,-245.0,332.5
10.25,198.25,990.15,420.0,-350.0,122.5
10.49,198.49,989.91,507.5,-437.5,-87.5
10.61,198.74,989.66,122.5,-420.0,-157.5
10.86,198.86,989.42,-315.0,-157.5,-192.5
11.1,198.74,989.54,-175.0,-192.5,-280.0
11.35,198.62,989.66,245.0,-367.5,-490.0
11.22,198.62,989.66,315.0,-157.5,-525.0
10.98,198.62,989.42,-140.0,140.0,-332.5
10.49,198.74,989.3,-297.5,-157.5,-192.5
10.0,198.62,989.42,-385.0,-227.5,70.0
10.0,198.13,989.91,-280.0,35.0,315.0
10.0,197.76,990.4,140.0,455.0,402.5
10.13,197.64,991.01,315.0,857.5,525.0
10.13,197.64,991.25,35.0,2187.5,1225.0
10.25,197.76,991.25,385.0,980.0,612.5
10.49,198.01,991.13,1102.5,-630.0,-542.5
10.74,197.88,991.13,770.0,-175.0,-420.0
10.86,197.64,991.13,175.0,1260.0,-70.0
10.98,197.52,990.88,630.0,735.0,-367.5
10.74,197.64,990.64,805.0,-245.0,-840.0
10.25,197.88,990.15,385.0,-420.0,-822.5
9.76,198.13,989.79,-87.5,-87.5,-280.0
9.52,198.49,989.54,87.5,-367.5,-210.0
9.27,198.86,989.18,122.5,-927.5,-630.0
9.15,199.1,988.93,-332.5,-1102.5,-997.5
8.91,199.1,989.18,-525.0,-717.5,-997.5
8.42,198.86,989.18,-175.0,-542.5,-822.5
7.93,198.37,988.93,-437.5,-910.0,-717.5
7.32,197.88,988.93,-560.0,-962.5,-420.0
6.95,197.4,989.18,-332.5,-472.5,297.5
6.59,196.91,989.66,0.0,17.5,787.5
6.34,196.91,989.79,402.5,-385.0,857.5
6.34,196.79,990.15,332.5,-385.0,875.0
6.47,196.79,990.4,525.0,-87.5,980.0
6.59,196.91,990.64,1032.5,-262.5,892.5
6.83,197.15,990.64,1190.0,-560.0,472.5
6.95,197.52,990.15,682.5,-297.5,472.5
7.08,197.76,989.66,105.0,-350.0,507.5
7.32,197.88,989.42,-17.5,-595.0,525.0
7.69,197.88,989.3,-315.0,-210.0,455.0
8.3,197.88,989.42,-367.5,-140.0,140.0
8.91,198.01,989.79,0.0,-402.5,-350.0
9.39,197.88,990.15,385.0,-490.0,-770.0
9.76,197.76,990.4,262.5,0.0,-682.5
9.76,197.64,990.76,157.5,367.5,-717.5
9.76,197.64,990.88,717.5,210.0,-840.0
9.15,197.64,990.64,822.5,-157.5,-857.5
8.54,197.76,990.15,472.5,-402.5,-647.5
7.93,197.64,989.79,-122.5,-402.5,-227.5
7.69,197.27,989.79,-157.5,-210.0,70.0
7.56,196.91,990.03,262.5,-227.5,52.5
7.56,196.66,990.15,367.5,-105.0,-35.0
7.32,196.66,990.27,437.5,-17.5,0.0
7.08,196.91,990.03,717.5,-525.0,140.0
6.83,197.27,989.66,542.5,-840.0,210.0
6.95,197.52,989.3,-192.5,-280.0,227.5
7.32,197.76,989.18,-420.0,-175.0,87.5
7.44,197.88,989.42,-245.0,-332.5,-245.0
7.56,197.88,989.54,-70.0,-455.0,-420.0
7.69,198.01,989.66,-105.0,-297.5,-385.0
7.81,197.88,989.91,-52.5,-280.0,-490.0
7.81,197.88,990.03,280.0,-402.5,-700.0
7.56,197.64,990.15,455.0,-595.0,-577.5
7.44,197.27,990.15,-52.5,-245.0,-315.0
7.2,197.03,990.03,0.0,-227.5,-315.0
6.95,196.91,990.15,192.5,-752.5,-262.5
6.83,196.79,990.15,17.5,-577.5,-157.5
6.59,196.66,990.27,35.0,-350.0,-70.0
6.59,196.66,990.4,297.5,-525.0,0.0
6.47,196.66,990.52,507.5,-367.5,-35.0
6.34,196.66,990.4,315.0,-560.0,17.5
6.1,196.66,990.03,-122.5,-962.5,192.5
5.98,196.66,990.15,-560.0,-927.5,385.0
5.86,196.42,990.88,-175.0,-437.5,542.5
5.73,196.18,991.37,595.0,-682.5,630.0
5.61,195.93,991.62,770.0,-647.5,752.5
5.73,195.69,991.62,420.0,70.0,980.0
5.86,195.57,991.74,805.0,17.5,1102.5
6.1,195.69,991.49,1067.5,-560.0,892.5
6.59,196.18,991.13,472.5,-420.0,682.5
7.08,196.66,990.76,0.0,-262.5,490.0
7.69,197.03,990.52,105.0,-437.5,157.5
8.17,197.27,990.4,297.5,-560.0,-315.0
8.42,197.27,990.27,210.0,-420.0,-490.0
8.42,197.15,990.15,-52.5,-245.0,-455.0
8.05,196.91,990.03,35.0,-367.5,-402.5
7.69,196.79,989.91,17.5,-577.5,-52.5
7.2,196.66,989.79,-350.0,-612.5,332.5
6.95,196.66,989.91,-175.0,-805.0,560.0
7.2,196.66,990.27,-122.5,-665.0,630.0
7.69,196.54,990.76,-105.0,-87.5,437.5
8.05,196.42,991.25,350.0,-280.0,87.5
8.3,196.42,991.74,752.5,-437.5,-122.5
8.3,196.18,991.98,822.5,315.0,227.5
8.3,196.3,991.74,735.0,770.0,717.5
8.42,196.66,991.13,647.5,0.0,332.5
8.66,197.15,990.4,350.0,-717.5,-315.0
8.78,197.64,989.66,-350.0,-577.5,-437.5
9.03,197.88,989.18,-892.5,-192.5,-402.5
9.03,198.01,989.3,-962.5,-297.5,-612.5
9.03,197.88,989.66,-630.0,-577.5,-962.5
8.91,197.52,990.03,-192.5,-630.0,-1032.5
8.3,197.15,990.15,385.0,-840.0,-805.0
7.81,196.54,989.79,-420.0,-560.0,-157.5
7.56,195.93,990.15,-1260.0,-52.5,280.0
7.69,195.32,990.76,-385.0,-227.5,315.0
7.81,194.96,991.62,262.5,-490.0,297.5
7.93,194.96,992.1,420.0,-192.5,227.5
8.17,195.08,992.35,612.5,52.5,192.5
8.3,195.32,992.47,822.5,17.5,-35.0
8.54,195.57,992.23,875.0,-385.0,-262.5
8.54,195.81,991.86,367.5,-297.5,-332.5
8.54,196.05,991.37,-52.5,-105.0,-402.5
8.3,195.93,991.13,52.5,-140.0,-420.0
8.05,195.93,990.88,35.0,-157.5,-280.0
7.93,195.69,990.4,-332.5,-122.5,-192.5
7.81,195.44,990.4,-875.0,-402.5,-192.5
7.93,195.08,990.88,-717.5,-822.5,-350.0
8.05,194.83,991.62,-140.0,-770.0,-192.5
8.17,194.71,992.23,262.5,-175.0,-87.5
8.42,194.71,992.59,612.5,-35.0,-227.5
8.66,194.96,992.71,910.0,-560.0,-577.5
9.03,194.96,992.59,735.0,-490.0,-805.0
9.52,194.96,992.47,52.5,122.5,-717.5
10.25,194.96,992.47,0.0,157.5,-1032.5
11.1,195.08,992.84,507.5,-70.0,-1557.5
11.96,195.2,993.08,612.5,577.5,-1890.0
12.57,195.44,992.96,665.0,997.5,-2450.0
12.57,195.93,992.35,997.5,280.0,-3080.0
12.08,196.3,991.37,665.0,-157.5,-3255.0
11.35,196.42,990.4,-490.0,175.0,-2887.5
10.61,196.05,989.79,-1610.0,735.0,-2152.5
10.13,195.44,989.91,-1837.5,437.5,-1995.0
9.76,194.71,990.76,-1137.5,-105.0,-2152.5
9.64,193.74,992.35,-647.5,980.0,-1347.5
9.64,193.0,994.06,210.0,1330.0,-1102.5
9.64,192.52,995.28,1855.0,87.5,-1890.0
9.15,192.52,995.76,3045.0,-875.0,-2642.5
8.17,192.64,995.52,3360.0,-1207.5,-2765.0
6.59,193.0,994.54,2625.0,-822.5,-2590.0
4.64,193.0,993.08,1750.0,-1155.0,-2345.0
2.2,193.0,991.62,1155.0,-2537.5,-1977.5
-0.24,192.76,990.52,735.0,-2765.0,-1277.5
-2.93,192.88,989.91,927.5,-1732.5,122.5
-5.12,193.25,988.93,822.5,-1190.0,1190.0
-6.71,193.86,987.47,192.5,-2030.0,1190.0
-8.05,193.98,986.37,-542.5,-2712.5,1260.0
-8.91,193.49,985.88,-1907.5,-1767.5,2590.0
-9.15,192.27,986.49,-2555.0,-332.5,4007.5
-8.54,191.3,987.83,-1172.5,-630.0,4497.5
-7.08,190.56,989.18,192.5,-1155.0,4532.5
-5.12,190.69,990.64,227.5,-157.5,4567.5
-3.05,191.05,991.98,787.5,612.5,4392.5
-0.73,191.91,992.59,1662.5,227.5,3797.5
1.46,192.88,992.59,1347.5,17.5,3010.0
3.78,193.74,992.47,612.5,175.0,2432.5
5.86,194.22,992.35,735.0,297.5,1907.5
7.81,194.83,992.1,1102.5,-105.0,1015.0
9.39,195.44,991.49,805.0,-367.5,52.5
10.25,196.05,990.64,402.5,-980.0,-577.5
10.86,196.54,990.15,315.0,-1155.0,-945.0
10.98,196.79,989.54,875.0,-2800.0,-6107.5
10.37,196.91,989.18,10605.0,-12127.5,-4602.5
10.0,196.66,989.18,10220.0,-13107.5,-4812.5
10.25,197.03,988.44,5075.0,-5915.0,-2362.5
10.13,197.52,987.59,245.0,-2537.5,-507.5
10.0,197.76,987.59,1925.0,-4445.0,-840.0
10.13,197.76,988.2,6475.0,-10185.0,-367.5
11.71,197.88,988.81,-2870.0,-2765.0,3867.5
13.91,198.74,989.54,-13720.0,13160.0,7735.0
16.1,199.1,990.52,-10307.5,11567.5,5565.0
18.06,200.2,990.88,717.5,-560.0,-735.0
19.4,201.79,990.03,945.0,-2782.5,-5145.0
18.91,202.4,988.44,-5845.0,4235.0,-3937.5
17.2,201.79,987.47,-9257.5,8050.0,-1050.0
15.49,200.32,987.35,-5862.5,5250.0,-402.5
13.91,198.86,987.59,-2117.5,560.0,-1995.0
12.2,197.15,988.08,-1102.5,-1697.5,-2537.5
10.25,195.2,989.54,-1137.5,-875.0,-1067.5
8.66,193.25,991.86,1050.0,-735.0,1085.0
8.05,192.03,993.93,3202.5,-1470.0,2205.0
8.66,191.78,995.15,3587.5,-1155.0,1977.5
9.76,191.91,995.64,2905.0,-1172.5,1505.0
11.22,192.27,995.76,2275.0,-437.5,1172.5
12.57,192.88,995.4,1785.0,892.5,665.0
13.54,193.98,994.06,1785.0,735.0,-52.5
14.27,194.96,992.1,1330.0,-210.0,-822.5
14.88,195.69,990.15,-1347.5,1015.0,-1190.0
14.64,195.69,988.44,3430.0,-2030.0,-2082.5
13.91,195.81,986.98,3920.0,-6475.0,-2852.5
13.18,195.81,986.49,-1890.0,-1592.5,-2257.5
11.83,195.2,986.98,-4042.5,1662.5,-17.5
10.86,194.35,988.57,-1225.0,-157.5,1242.5
10.86,193.86,990.27,997.5,-1330.0,735.0
11.35,193.49,991.74,910.0,-892.5,245.0
11.71,193.0,993.2,455.0,350.0,490.0
11.96,192.64,994.54,717.5,1890.0,980.0
12.2,192.52,995.4,910.0,3202.5,840.0
12.08,192.52,995.03,3237.5,1837.5,122.5
11.59,193.0,993.57,4690.0,-752.5,-280.0
11.1,193.74,991.37,1767.5,472.5,-192.5
10.37,194.59,989.3,-1032.5,2205.0,542.5
9.52,195.08,987.83,-1697.5,1015.0,770.0
8.91,195.2,987.22,-2030.0,420.0,700.0
8.3,195.2,987.1,-2240.0,1207.5,1155.0
7.81,194.71,987.47,-2047.5,665.0,1435.0
7.32,194.35,988.44,-1050.0,-350.0,1067.5
7.08,193.86,989.79,875.0,-1277.5,1067.5
7.08,193.74,990.64,1400.0,-700.0,1802.5
7.56,193.61,990.88,192.5,805.0,1855.0
7.93,193.49,991.25,910.0,350.0,1155.0
8.3,193.25,991.37,3290.0,-1820.0,472.5
8.42,193.25,991.01,3657.5,-2257.5,297.5
8.54,193.37,990.4,2030.0,-1225.0,717.5
8.78,193.49,990.03,892.5,-542.5,1050.0
9.03,193.74,989.66,542.5,-560.0,1295.0
9.39,194.1,989.42,-70.0,105.0,1155.0
9.76,194.59,989.3,-87.5,-367.5,560.0
10.0,194.96,989.42,1960.0,-2187.5,402.5
10.37,195.32,989.79,2712.5,-2257.5,507.5
10.74,195.93,989.42,210.0,542.5,385.0
10.86,196.42,988.93,-1190.0,1067.5,577.5
10.74,196.66,988.69,-647.5,-122.5,315.0
10.61,196.79,988.44,332.5,-560.0,70.0
10.13,196.91,987.96,297.5,-1032.5,35.0
9.52,197.03,987.59,-315.0,-997.5,210.0
8.66,196.91,987.59,-350.0,-945.0,735.0
7.93,196.42,987.96,-245.0,-927.5,1417.5
7.56,195.93,988.57,-437.5,-367.5,1872.5
7.81,195.57,989.42,-35.0,-210.0,1907.5
8.05,195.57,990.03,1120.0,-472.5,1890.0
8.78,195.81,989.91,1207.5,-210.0,1750.0
9.52,196.3,989.54,227.5,105.0,1575.0
10.49,196.66,989.3,-332.5,140.0,1225.0
11.47,196.79,989.54,-175.0,-140.0,700.0
12.57,196.54,989.79,315.0,-560.0,245.0
13.3,196.3,989.91,350.0,-262.5,87.5
13.54,196.42,989.91,245.0,-52.5,-140.0
13.3,196.66,989.91,297.5,-402.5,-350.0
12.69,196.66,990.03,-35.0,-437.5,-87.5
11.83,196.3,990.4,332.5,-245.0,490.0
10.98,195.81,990.76,1015.0,-262.5,980.0
10.25,195.32,990.76,962.5,-437.5,1172.5
9.52,194.96,990.76,542.5,-507.5,1400.0
8.54,194.59,991.01,822.5,-770.0,1942.5
7.69,194.59,991.37,1295.0,-647.5,2677.5
7.08,194.96,991.37,1400.0,-192.5,3185.0
6.71,195.44,991.37,1032.5,227.5,3377.5
6.71,195.81,991.13,805.0,87.5,3412.5
7.2,195.93,990.88,1050.0,-210.0,3395.0
8.42,196.18,990.52,1067.5,-87.5,3447.5
10.49,196.66,990.27,367.5,490.0,2765.0
12.93,197.15,990.52,245.0,455.0,1312.5
15.25,197.64,990.88,1015.0,-122.5,122.5
17.45,198.37,991.13,1382.5,227.5,-822.5
19.52,199.1,991.01,1102.5,210.0,-1680.0
21.23,199.96,990.64,857.5,-350.0,-2432.5
22.81,200.93,990.4,612.5,-297.5,-3202.5
24.28,201.67,990.15,630.0,-315.0,-4060.0
25.25,202.4,989.79,1452.5,-752.5,-4952.5
25.62,203.01,989.3,822.5,-420.0,-6090.0
24.77,203.62,988.57,1102.5,-630.0,-6282.5
23.18,204.23,987.59,157.5,-455.0,-5967.5
21.47,204.23,986.74,-2397.5,1557.5,-5215.0
19.28,203.5,986.49,-3115.0,2152.5,-4322.5
17.08,202.28,986.49,-2310.0,1382.5,-3412.5
15.01,200.93,986.49,-1767.5,1050.0,-2852.5
13.05,199.71,986.98,-1925.0,840.0,-2327.5
10.86,198.49,987.96,-1435.0,1365.0,-1732.5
8.3,197.27,988.57,70.0,1242.5,-770.0
5.61,196.54,988.2,-402.5,402.5,210.0
2.93,195.81,987.71,-1750.0,-315.0,945.0
0.85,194.96,987.83,-1172.5,-1067.5,2135.0
-0.24,194.47,988.08,-157.5,-1190.0,3272.5
-0.24,194.47,988.2,-875.0,-752.5,3307.5
0.73,194.47,988.69,-1732.5,-682.5,2397.5
1.95,194.47,989.91,-437.5,-962.5,1627.5
3.05,194.47,991.13,1400.0,-787.5,1207.5
4.15,194.71,991.62,1732.5,-297.5,805.0
4.76,194.83,991.01,770.0,0.0,472.5
4.88,194.83,990.15,140.0,-805.0,367.5
4.64,194.47,989.42,-525.0,-1575.0,805.0
4.39,193.98,989.42,-910.0,-1435.0,1610.0
4.39,193.61,989.79,-87.5,-1802.5,2187.5
4.76,193.37,990.15,665.0,-2082.5,2310.0
5.86,193.49,990.64,280.0,-1452.5,2397.5
7.2,193.86,991.01,-35.0,-490.0,1977.5
8.54,194.35,991.37,315.0,-437.5,1137.5
9.64,194.96,991.62,1085.0,-1137.5,297.5
10.49,195.44,991.49,805.0,-910.0,-175.0
10.86,195.69,991.62,525.0,-332.5,-245.0
10.86,195.69,991.98,857.5,-367.5,-315.0
10.74,195.57,991.98,1032.5,-665.0,-262.5
10.25,195.2,991.86,752.5,-630.0,70.0
9.76,194.83,991.49,595.0,-752.5,612.5
9.52,194.83,991.13,192.5,-595.0,945.0
9.52,194.96,990.88,140.0,-577.5,682.5
9.64,194.96,990.88,297.5,-892.5,472.5
10.0,195.2,991.13,367.5,-437.5,140.0
10.49,195.32,991.37,945.0,-665.0,-122.5
11.1,195.44,991.49,717.5,-210.0,-280.0
11.71,195.44,991.62,297.5,192.5,-350.0
12.2,195.44,992.1,490.0,315.0,-385.0
12.81,195.44,992.47,1435.0,297.5,-595.0
13.18,195.81,992.23,1855.0,35.0,-805.0
13.42,196.18,991.49,1050.0,17.5,-857.5
13.66,196.42,990.88,315.0,525.0,-875.0
13.54,196.54,990.52,665.0,507.5,-910.0
13.18,196.66,989.79,840.0,192.5,-962.5
12.44,196.79,988.69,157.5,-192.5,-945.0
11.83,196.66,987.59,-665.0,-385.0,-682.5
11.1,196.54,987.22,-1260.0,-210.0,-367.5
10.25,196.3,987.22,-840.0,-490.0,-175.0
9.52,196.05,987.22,-770.0,-735.0,17.5
9.03,195.93,987.71,-1050.0,-210.0,332.5
8.54,195.57,988.32,-857.5,472.5,612.5
8.17,195.32,988.93,-682.5,420.0,630.0
7.81,194.96,989.66,-262.5,70.0,525.0
7.32,194.35,990.4,192.5,175.0,927.5
7.08,193.86,991.01,525.0,980.0,1575.0
7.08,193.74,991.37,857.5,1365.0,1680.0
7.2,193.74,991.37,1260.0,507.5,1137.5
7.2,193.98,990.88,1330.0,17.5,875.0
6.95,194.35,990.27,875.0,350.0,1155.0
6.83,194.47,989.54,157.5,682.5,1435.0
7.08,194.47,989.05,-402.5,630.0,1347.5
7.32,194.47,988.93,-332.5,437.5,945.0
7.56,194.35,988.93,192.5,227.5,717.5
7.56,194.1,988.93,297.5,245.0,805.0
7.56,193.86,988.81,-262.5,472.5,980.0
7.56,193.74,989.18,-17.5,595.0,1032.5
7.32,193.74,989.54,735.0,437.5,997.5
6.95,193.74,989.42,665.0,297.5,997.5
6.47,193.74,989.3,210.0,262.5,1085.0
5.73,193.49,989.42,385.0,70.0,1347.5
4.76,193.37,989.42,805.0,-35.0,1890.0
4.03,193.61,989.18,647.5,-297.5,2065.0
3.54,193.74,988.93,-52.5,-525.0,2065.0
3.29,193.74,989.3,-175.0,-350.0,2170.0
3.29,193.37,989.66,367.5,-122.5,2415.0
3.42,193.13,989.79,892.5,-192.5,2415.0
3.9,193.25,989.79,770.0,-175.0,1977.5
4.51,193.61,989.91,647.5,-157.5,1540.0
5.12,193.86,990.15,787.5,210.0,1312.5
5.49,194.1,990.15,1032.5,210.0,1190.0
5.86,194.47,989.91,1032.5,-350.0,1015.0
6.1,194.71,989.66,962.5,-577.5,770.0
6.1,194.96,989.18,770.0,-805.0,770.0
5.61,194.96,988.93,682.5,-665.0,1120.0
5.12,194.83,988.44,805.0,-962.5,1470.0
4.64,194.59,987.83,472.5,-1277.5,1820.0
4.39,194.22,987.22,-175.0,-1330.0,2135.0
4.27,193.74,987.22,-577.5,-1102.5,2712.5
4.64,193.61,987.47,-350.0,-857.5,2940.0
5.12,193.61,987.59,157.5,-1400.0,2642.5
5.98,193.98,987.71,122.5,-1837.5,2187.5
7.08,194.22,987.96,157.5,-1662.5,2012.5
8.05,194.47,988.32,192.5,-822.5,1872.5
9.15,194.71,988.69,420.0,-805.0,1365.0
10.13,195.2,988.57,560.0,-1452.5,735.0
10.98,195.57,988.57,455.0,-1522.5,122.5
11.59,195.81,988.44,245.0,-1102.5,175.0
12.2,196.05,988.44,87.5,-805.0,210.0
12.57,196.18,988.44,122.5,-735.0,-87.5
12.93,196.3,988.57,0.0,-665.0,-262.5
13.18,196.3,988.69,105.0,-682.5,-297.5
13.3,196.3,988.69,210.0,-630.0,-350.0
13.42,196.18,988.69,105.0,-770.0,-420.0
13.42,196.05,988.81,-140.0,-490.0,-367.5
13.54,195.93,988.93,-70.0,-105.0,-332.5
13.66,195.93,989.05,332.5,-402.5,-420.0
13.66,195.93,989.18,35.0,-192.5,-402.5
13.54,195.93,989.42,-87.5,262.5,-297.5
13.54,195.93,989.79,472.5,192.5,-227.5
13.66,195.93,989.91,682.5,-122.5,-542.5
13.91,195.81,989.91,367.5,-175.0,-787.5
13.91,195.69,989.91,542.5,-87.5,-805.0
13.91,195.69,989.91,787.5,105.0,-577.5
14.03,195.81,989.66,507.5,245.0,-577.5
14.15,195.93,989.42,175.0,157.5,-910.0
14.03,195.93,989.3,245.0,87.5,-1172.5
13.79,195.93,989.18,280.0,-35.0,-1102.5
13.42,195.93,988.93,35.0,-52.5,-1172.5
12.93,195.81,988.81,122.5,-420.0,-1207.5
12.69,195.69,988.93,52.5,-210.0,-927.5
12.32,195.57,988.93,-87.5,-87.5,-752.5
11.96,195.44,989.18,70.0,-630.0,-822.5
11.71,195.44,989.54,472.5,-927.5,-892.5
11.47,195.69,989.66,665.0,-665.0,-752.5
11.1,195.81,989.42,612.5,-945.0,-682.5
10.86,195.93,989.18,402.5,-1260.0,-752.5
10.61,195.81,989.05,52.5,-840.0,-735.0
10.49,195.44,989.05,-122.5,-577.5,-560.0
10.37,195.08,989.42,-140.0,-560.0,-385.0
10.49,194.71,990.15,52.5,-140.0,-245.0
10.86,194.47,991.13,892.5,297.5,-227.5
11.35,194.22,991.62,1715.0,402.5,-245.0
12.08,194.47,991.49,1540.0,525.0,-577.5
12.69,194.96,991.25,1400.0,350.0,-962.5
13.18,195.57,990.64,1242.5,402.5,-1155.0
13.42,196.18,989.91,752.5,420.0,-1207.5
13.54,196.79,989.18,17.5,0.0,-1365.0
13.66,197.03,988.69,-332.5,-525.0,-1645.0
13.79,197.15,988.93,-87.5,-630.0,-1802.5
13.79,197.15,989.18,385.0,-227.5,-1837.5
13.54,197.15,989.05,70.0,-87.5,-1802.5
13.05,197.15,988.93,-507.5,-35.0,-2030.0
12.44,196.79,989.3,-245.0,-52.5,-2152.5
11.59,196.42,989.79,70.0,-35.0,-1890.0
10.61,196.05,990.15,52.5,227.5,-1522.5
9.39,195.57,990.64,-70.0,332.5,-1032.5
8.3,195.08,991.25,577.5,-105.0,-805.0
7.32,194.47,991.62,1277.5,-542.5,-437.5
6.47,193.98,991.62,1487.5,-192.5,280.0
5.73,193.98,991.37,1417.5,420.0,840.0
5.12,194.47,990.52,1557.5,-122.5,857.5
4.64,194.96,989.18,630.0,-892.5,647.5
4.39,195.2,988.44,-420.0,-945.0,857.5
4.51,195.2,988.44,-490.0,-245.0,1312.5
4.88,195.2,988.57,-262.5,35.0,1347.5
5.12,195.44,988.81,87.5,-717.5,735.0
5.61,195.69,989.18,525.0,-1120.0,420.0
5.86,195.81,989.42,840.0,-612.5,857.5
6.34,196.05,989.42,665.0,-175.0,1085.0
6.83,196.42,988.93,577.5,-507.5,647.5
7.2,196.91,988.44,140.0,-980.0,315.0
7.56,197.52,988.08,-245.0,-822.5,122.5
7.81,197.76,987.96,-665.0,-455.0,-87.5
8.05,197.88,988.08,-840.0,-962.5,-490.0
8.17,197.64,988.69,-735.0,-1242.5,-717.5
8.05,197.03,989.42,-35.0,-927.5,-437.5
7.81,196.54,989.91,525.0,-542.5,87.5
7.56,196.3,989.91,560.0,-700.0,245.0
7.56,196.18,989.66,490.0,-1102.5,245.0
7.44,196.05,989.54,52.5,-770.0,367.5
7.44,196.18,989.42,70.0,-665.0,455.0
7.56,196.18,989.18,-280.0,-612.5,647.5
7.56,196.42,988.93,-612.5,-857.5,472.5
7.81,196.42,988.93,-542.5,-1295.0,385.0
8.05,196.3,989.3,-682.5,-875.0,507.5
8.17,196.18,989.66,-420.0,-665.0,665.0
8.42,196.05,990.15,-35.0,-682.5,700.0
8.66,195.93,990.52,385.0,-700.0,490.0
8.78,195.81,990.52,315.0,-857.5,437.5
9.03,195.69,990.64,-157.5,-490.0,420.0
9.03,195.44,990.88,140.0,-385.0,525.0
9.27,195.57,990.76,542.5,-770.0,542.5
9.52,195.69,990.64,297.5,-997.5,385.0
9.88,195.69,990.52,-210.0,-700.0,332.5
10.25,195.69,990.88,-140.0,-245.0,297.5
10.49,195.69,991.13,350.0,-385.0,140.0
10.74,195.69,991.13,490.0,-700.0,-35.0
10.86,195.69,991.01,210.0,-490.0,-70.0
10.98,195.44,991.01,-227.5,-52.5,245.0
10.98,195.32,991.13,52.5,-140.0,245.0
11.1,195.2,991.37,490.0,-577.5,52.5
11.1,195.2,991.37,472.5,-595.0,140.0
11.22,195.2,991.37,210.0,52.5,472.5
11.22,195.08,991.37,210.0,-87.5,455.0
11.47,195.2,991.37,385.0,-577.5,70.0
11.59,195.2,991.37,437.5,-577.5,-52.5
11.71,195.08,991.37,227.5,-17.5,315.0
11.96,195.08,991.37,192.5,70.0,367.5
12.2,195.2,991.49,350.0,-262.5,-35.0
12.2,195.32,991.49,717.5,-647.5,-227.5
12.32,195.32,991.37,350.0,-245.0,-70.0
12.44,195.32,991.25,52.5,52.5,-87.5
12.44,195.44,991.25,507.5,-437.5,-227.5
12.32,195.44,991.01,472.5,-472.5,-332.5
12.32,195.44,990.76,-52.5,-315.0,-280.0
12.2,195.44,990.64,-227.5,-665.0,-157.5
12.08,195.44,990.76,-17.5,-875.0,-245.0
12.08,195.44,990.88,35.0,-735.0,-210.0
12.08,195.44,991.13,-52.5,-472.5,0.0
12.08,195.2,991.49,262.5,-525.0,-122.5
12.08,194.96,991.86,752.5,-577.5,-227.5
12.08,194.83,991.86,857.5,-332.5,-140.0
11.96,194.71,991.74,560.0,35.0,70.0
11.96,194.71,991.62,437.5,-105.0,70.0
11.96,194.83,991.25,385.0,-542.5,-105.0
11.96,194.96,991.01,35.0,-525.0,-52.5
11.96,194.96,990.88,-52.5,-210.0,245.0
11.96,194.96,990.88,157.5,-332.5,192.5
12.08,195.08,990.88,157.5,-665.0,-157.5
12.08,195.2,990.88,70.0,-787.5,-315.0
11.96,195.08,990.88,-35.0,-490.0,-35.0
11.83,194.96,990.88,-175.0,-175.0,262.5
11.83,194.96,991.13,-175.0,-87.5,262.5
11.96,194.83,991.37,315.0,-577.5,52.5
11.96,194.83,991.62,507.5,-665.0,-122.5
12.08,194.83,991.62,472.5,-280.0,-35.0
11.96,194.71,991.62,157.5,87.5,175.0
11.96,194.83,991.62,140.0,-17.5,192.5
11.96,194.71,991.49,210.0,-350.0,17.5
11.96,194.71,991.49,210.0,-560.0,-70.0
11.83,194.59,991.62,385.0,-525.0,35.0
11.83,194.47,991.62,332.5,-315.0,280.0
11.83,194.47,991.62,122.5,-245.0,262.5
11.83,194.35,991.49,280.0,-420.0,245.0
11.83,194.35,991.62,350.0,-490.0,315.0
11.96,194.35,991.49,350.0,-350.0,332.5
11.96,194.47,991.37,367.5,-455.0,280.0
12.2,194.47,991.25,87.5,-437.5,262.5
12.2,194.47,991.37,-70.0,-192.5,297.5
12.32,194.59,991.37,332.5,-280.0,350.0
12.57,194.59,991.37,315.0,-420.0,192.5
12.69,194.59,991.49,122.5,-350.0,-105.0
12.81,194.59,991.74,437.5,-385.0,-157.5
12.69,194.59,991.86,682.5,-297.5,-52.5
12.69,194.71,991.62,472.5,-192.5,17.5
12.69,194.71,991.37,175.0,-280.0,-70.0
12.69,194.71,991.25,-35.0,-350.0,-35.0
12.69,194.59,991.37,-70.0,-297.5,-87.5
12.57,194.47,991.62,192.5,-245.0,0.0
12.57,194.47,991.86,332.5,-350.0,70.0
12.69,194.35,992.1,472.5,-210.0,-17.5
12.69,194.35,992.1,647.5,-297.5,-87.5
12.69,194.47,992.1,717.5,-297.5,-17.5
12.69,194.47,991.74,315.0,-35.0,-35.0
12.69,194.59,991.49,437.5,-297.5,-35.0
12.57,194.71,991.13,420.0,-612.5,-262.5
12.57,194.96,990.64,-315.0,-805.0,-332.5
12.44,194.83,990.76,-822.5,-560.0,-52.5
12.57,194.71,991.37,-262.5,-455.0,70.0
12.69,194.59,991.86,437.5,-805.0,-87.5
12.93,194.59,992.23,612.5,-840.0,-367.5
12.93,194.35,992.47,507.5,-472.5,-367.5
12.93,194.1,992.84,700.0,-87.5,-245.0
12.69,193.98,992.84,997.5,-157.5,-105.0
12.44,193.86,992.47,875.0,-315.0,-52.5
12.32,193.98,992.1,577.5,-280.0,0.0
12.2,194.1,991.74,612.5,-472.5,35.0
12.2,194.35,991.37,507.5,-647.5,-35.0
12.08,194.47,990.88,-70.0,-577.5,52.5
12.2,194.59,990.76,-297.5,-437.5,175.0
12.2,194.71,990.88,87.5,-402.5,35.0
12.32,194.71,990.88,227.5,-735.0,-157.5
12.44,194.83,990.88,-140.0,-700.0,-210.0
12.44,194.71,991.13,-245.0,-525.0,-210.0
12.44,194.59,991.62,210.0,-507.5,-52.5
12.44,194.47,991.86,630.0,-507.5,122.5
12.57,194.47,991.86,560.0,-332.5,157.5
12.69,194.47,991.86,630.0,-577.5,-140.0
12.69,194.59,991.62,542.5,-770.0,-332.5
12.57,194.71,991.37,227.5,-455.0,-122.5
12.44,194.71,991.01,105.0,-140.0,192.5
12.32,194.71,990.64,-35.0,-332.5,297.5
12.44,194.71,990.4,-332.5,-577.5,70.0
12.32,194.59,990.52,-385.0,-665.0,-52.5
12.2,194.35,991.01,-105.0,-560.0,262.5
11.96,194.1,991.37,367.5,-122.5,595.0
11.83,193.98,991.49,682.5,-420.0,700.0
11.83,193.86,991.37,455.0,-840.0,612.5
11.96,193.86,991.25,105.0,-682.5,560.0
12.32,193.86,991.49,105.0,-140.0,682.5
12.69,193.86,991.62,262.5,-87.5,665.0
12.93,193.98,991.49,647.5,-770.0,210.0
13.18,194.35,991.13,717.5,-1330.0,-87.5
13.54,194.47,990.88,35.0,-892.5,-87.5
13.79,194.47,991.01,-175.0,-490.0,0.0
14.03,194.47,991.25,52.5,-525.0,0.0
14.27,194.47,991.49,437.5,-647.5,-192.5
14.4,194.47,991.62,595.0,-665.0,-350.0
14.4,194.47,991.62,630.0,-665.0,-192.5
14.4,194.47,991.49,227.5,-315.0,-17.5
14.52,194.35,991.62,122.5,-210.0,-52.5
14.64,194.22,991.62,402.5,-437.5,-210.0
14.64,194.22,991.62,595.0,-472.5,-245.0
14.64,194.35,991.37,665.0,-210.0,-157.5
14.52,194.47,991.13,350.0,-402.5,-192.5
14.4,194.47,990.64,-52.5,-647.5,-350.0
14.15,194.47,990.64,35.0,-595.0,-332.5
14.03,194.35,990.4,-35.0,-210.0,122.5
13.91,194.22,990.27,-332.5,-70.0,280.0
13.91,194.1,990.4,-595.0,-560.0,122.5
13.91,193.98,991.01,-385.0,-682.5,0.0
14.03,193.98,991.74,420.0,-560.0,157.5
14.03,193.98,991.98,735.0,-437.5,262.5
14.15,193.98,992.1,752.5,-717.5,-70.0
14.15,193.98,992.1,945.0,-997.5,-245.0
14.27,193.74,992.1,665.0,-297.5,52.5
14.4,193.37,992.1,17.5,717.5,560.0
14.52,193.25,992.23,402.5,122.5,280.0
14.64,193.25,992.23,1120.0,-717.5,-140.0
14.76,193.37,991.98,892.5,-367.5,-105.0
14.88,193.61,991.62,332.5,52.5,0.0
15.01,193.74,991.37,560.0,-350.0,-192.5
15.13,193.98,991.01,595.0,-472.5,-507.5
15.13,194.1,990.52,17.5,-560.0,-577.5
14.88,194.1,990.4,-280.0,-647.5,-455.0
14.64,193.98,990.52,-157.5,-717.5,-280.0
14.4,193.98,990.88,70.0,-612.5,-52.5
14.4,193.98,991.13,507.5,-787.5,35.0
14.4,194.1,991.25,682.5,-770.0,-52.5
14.52,194.22,991.37,280.0,-455.0,-17.5
14.64,194.22,991.37,52.5,-70.0,-17.5
14.64,194.1,991.62,437.5,-35.0,105.0
14.64,194.22,991.62,717.5,-385.0,-17.5
14.76,194.35,991.37,525.0,-770.0,-332.5
14.88,194.35,991.37,280.0,-682.5,-420.0
14.88,194.22,991.37,297.5,-367.5,-315.0
15.01,194.22,991.37,350.0,-455.0,-297.5
15.13,194.22,991.37,210.0,-577.5,-402.5
15.13,194.22,991.37,297.5,-472.5,-297.5
15.13,194.1,991.37,367.5,-490.0,-140.0
15.13,194.1,991.37,192.5,-647.5,-297.5
15.13,194.1,991.49,437.5,-875.0,-332.5
15.13,194.1,991.62,542.5,-630.0,-140.0
15.13,194.22,991.49,507.5,-315.0,0.0
15.13,194.35,991.25,385.0,-385.0,-17.5
15.25,194.47,991.01,35.0,-490.0,-157.5
15.37,194.47,990.88,35.0,-595.0,-315.0
15.37,194.71,990.88,52.5,-455.0,-245.0
15.37,194.71,990.88,315.0,-472.5,-175.0
15.37,194.71,990.64,105.0,-525.0,-175.0
15.62,194.71,990.64,-157.5,-542.5,-367.5
15.62,194.59,991.01,52.5,-525.0,-455.0
15.74,194.47,991.25,402.5,-262.5,-262.5
15.62,194.47,991.37,647.5,-280.0,-297.5
15.49,194.47,991.13,595.0,-577.5,-280.0
15.37,194.22,991.01,315.0,-402.5,-192.5
15.25,194.22,990.88,280.0,-122.5,-17.5
15.13,194.22,990.64,280.0,-280.0,-17.5
14.88,194.35,990.27,192.5,-962.5,-157.5
14.88,194.47,989.91,-70.0,-1330.0,-140.0
14.88,194.59,989.91,-385.0,-945.0,105.0
15.13,194.59,990.4,-315.0,-385.0,140.0
15.37,194.47,990.76,367.5,-805.0,-192.5
15.49,194.35,990.88,700.0,-1330.0,-437.5
15.62,194.1,991.13,770.0,-1347.5,-542.5
15.49,193.86,991.01,892.5,-1400.0,-350.0
15.62,193.74,991.25,0.0,157.5,367.5
15.74,193.74,991.37,455.0,402.5,402.5
15.86,193.86,991.13,1085.0,-980.0,-87.5
15.98,194.1,990.64,647.5,-1225.0,-560.0
16.1,194.22,990.15,490.0,-1137.5,-280.0
16.35,194.35,989.91,-70.0,-297.5,0.0
16.47,194.47,989.66,-262.5,-70.0,-210.0
16.47,194.59,989.54,-105.0,-962.5,-490.0
16.47,194.71,989.54,122.5,-1190.0,-630.0
16.35,194.59,989.79,-227.5,-490.0,35.0
16.47,194.47,990.4,-192.5,70.0,350.0
16.59,194.35,990.76,577.5,-350.0,105.0
16.71,194.35,990.88,787.5,-717.5,-227.5
16.84,194.47,990.76,665.0,-612.5,-245.0
17.08,194.47,990.64,437.5,-385.0,-52.5
17.08,194.47,990.52,227.5,87.5,87.5
17.32,194.47,990.4,157.5,-17.5,-87.5
17.45,194.47,990.15,122.5,-490.0,-402.5
17.45,194.47,990.15,297.5,-682.5,-525.0
17.32,194.35,990.15,315.0,-560.0,-315.0
17.08,194.22,990.27,245.0,-385.0,-105.0
17.08,194.1,990.4,175.0,-437.5,-105.0
17.08,193.98,990.4,315.0,-647.5,-245.0
17.08,193.98,990.4,332.5,-595.0,-17.5
17.08,193.86,990.52,210.0,-245.0,192.5
17.08,193.86,990.64,297.5,17.5,297.5
17.2,193.98,990.76,525.0,-70.0,122.5
17.2,194.1,990.64,700.0,-437.5,52.5
17.32,194.35,990.15,525.0,-420.0,0.0
17.45,194.47,989.91,227.5,-192.5,17.5
17.45,194.59,989.66,140.0,-455.0,-175.0
17.57,194.71,989.42,-140.0,-647.5,-350.0
17.69,194.71,989.42,-385.0,-297.5,-157.5
17.81,194.59,989.79,17.5,-210.0,-122.5
17.81,194.59,989.91,332.5,-612.5,-262.5
18.06,194.47,990.03,367.5,-630.0,-402.5
18.06,194.35,990.27,175.0,-175.0,-262.5
18.06,194.22,990.4,350.0,105.0,-52.5
17.93,194.22,990.4,525.0,-87.5,-87.5
17.81,194.22,990.4,560.0,-455.0,-315.0
17.57,194.35,990.15,770.0,-595.0,-227.5
17.32,194.35,989.79,227.5,-105.0,52.5
17.32,194.47,989.42,-297.5,-105.0,227.5
17.32,194.47,989.42,-455.0,-612.5,87.5
17.32,194.47,989.79,-87.5,-665.0,0.0
17.32,194.47,990.15,297.5,-542.5,105.0
17.45,194.47,990.4,490.0,-700.0,52.5
17.57,194.22,990.64,525.0,-717.5,-87.5
17.69,193.98,990.88,455.0,-192.5,0.0
17.69,193.61,991.13,682.5,192.5,192.5
17.69,193.61,991.13,840.0,-70.0,245.0
17.81,193.74,990.88,735.0,-245.0,122.5
17.81,193.98,990.64,490.0,-192.5,52.5
17.81,193.98,990.4,332.5,-175.0,70.0
17.81,194.22,990.03,227.5,-332.5,87.5
17.81,194.22,989.91,52.5,-210.0,157.5
17.81,194.35,989.91,0.0,-17.5,70.0
17.69,194.47,989.79,332.5,-577.5,-157.5
17.45,194.59,989.66,210.0,-910.0,-122.5
17.2,194.47,989.79,-105.0,-490.0,122.5
17.2,194.47,989.91,0.0,-315.0,490.0
17.32,194.47,990.15,210.0,-315.0,402.5
17.57,194.47,990.4,350.0,-420.0,227.5
17.81,194.47,990.52,210.0,-122.5,140.0
17.81,194.47,990.64,297.5,17.5,122.5
17.93,194.47,990.52,472.5,-332.5,-70.0
17.81,194.59,990.4,332.5,-525.0,-192.5
17.81,194.59,990.15,105.0,-402.5,-70.0
17.69,194.47,990.03,-122.5,-297.5,175.0
17.69,194.35,990.15,-227.5,-227.5,70.0
17.81,194.22,990.52,175.0,-367.5,-17.5
17.69,194.1,990.76,525.0,-402.5,35.0
17.69,194.1,990.88,647.5,-280.0,192.5
17.69,194.22,990.76,455.0,-227.5,210.0
17.81,194.22,990.64,280.0,-280.0,210.0
17.81,194.22,990.52,140.0,-315.0,52.5
17.93,194.35,990.52,245.0,-350.0,17.5
17.93,194.47,990.4,332.5,-560.0,-70.0
18.06,194.59,990.4,297.5,-630.0,-122.5
18.06,194.59,990.4,87.5,-630.0,-210.0
18.06,194.47,990.4,17.5,-560.0,-367.5
18.18,194.47,990.64,280.0,-647.5,-315.0
18.3,194.47,990.64,402.5,-647.5,-367.5
18.42,194.59,990.52,140.0,-805.0,-507.5
18.54,194.59,990.52,-227.5,-752.5,-507.5
18.54,194.47,991.01,-262.5,-280.0,-402.5
18.67,194.22,991.74,402.5,-105.0,-315.0
18.79,193.98,992.1,892.5,17.5,-157.5
19.03,194.1,992.23,945.0,-70.0,-402.5
19.03,194.22,992.1,1085.0,-402.5,-822.5
18.91,194.35,991.74,892.5,-297.5,-630.0
18.67,194.35,991.37,280.0,157.5,-437.5
18.3,194.47,991.01,455.0,-140.0,-402.5
18.06,194.59,990.64,367.5,-297.5,-385.0
17.81,194.71,990.15,-227.5,-367.5,-350.0
17.45,194.59,990.03,-647.5,-647.5,-140.0
17.32,194.35,990.52,-297.5,-752.5,-52.5
17.2,194.22,991.13,157.5,-490.0,140.0
17.32,193.98,991.74,315.0,-262.5,245.0
17.32,193.98,991.98,927.5,-542.5,175.0
17.32,193.98,992.1,1225.0,-577.5,52.5
17.45,193.98,991.74,752.5,-157.5,0.0
17.57,194.1,991.37,350.0,-70.0,52.5
17.57,194.35,991.13,472.5,-350.0,0.0
17.81,194.47,990.88,210.0,-332.5,-87.5
17.93,194.47,990.64,-105.0,-245.0,-245.0
17.93,194.47,990.76,157.5,-315.0,-280.0
17.81,194.47,990.88,350.0,-542.5,-192.5
17.69,194.59,990.88,350.0,-385.0,-70.0
17.57,194.59,990.88,122.5,87.5,52.5
17.57,194.71,990.64,87.5,-52.5,-17.5
17.32,194.71,990.64,140.0,-507.5,-157.5
17.08,194.71,990.64,122.5,-525.0,0.0
16.96,194.47,990.76,192.5,-245.0,420.0
17.08,194.47,990.88,227.5,-140.0,560.0
17.32,194.47,991.13,297.5,-210.0,175.0
17.45,194.47,991.25,647.5,-385.0,-105.0
17.32,194.71,991.13,595.0,-385.0,-70.0
17.32,194.71,990.76,297.5,-157.5,122.5
17.32,194.83,990.4,-70.0,-332.5,35.0
17.32,194.71,990.15,-280.0,-665.0,-122.5
17.32,194.59,990.52,-70.0,-420.0,-87.5
17.2,194.47,990.88,437.5,-262.5,87.5
17.2,194.22,991.01,490.0,-385.0,157.5
17.32,194.22,991.13,140.0,-210.0,140.0
17.32,193.98,991.37,525.0,-70.0,175.0
17.2,193.98,991.49,962.5,-192.5,315.0
17.08,194.22,991.13,770.0,-210.0,350.0
17.2,194.35,990.76,175.0,-175.0,210.0
17.32,194.47,990.64,350.0,-490.0,52.5
17.32,194.71,990.4,577.5,-700.0,-35.0
17.57,194.83,990.15,-87.5,-175.0,70.0
17.57,194.83,990.15,-280.0,-70.0,-87.5
17.57,194.83,990.4,455.0,-577.5,-140.0
17.57,194.71,990.4,472.5,-367.5,-122.5
17.57,194.71,990.4,122.5,35.0,-87.5
17.45,194.71,990.4,210.0,-350.0,-52.5
17.32,194.71,990.4,245.0,-455.0,-35.0
17.2,194.71,990.4,227.5,-262.5,-17.5
17.2,194.59,990.64,210.0,-175.0,122.5
17.2,194.59,990.64,402.5,-315.0,17.5
17.2,194.59,990.64,525.0,-280.0,-35.0
17.32,194.59,990.64,350.0,-122.5,70.0
17.32,194.59,990.64,52.5,122.5,87.5
17.32,194.59,990.64,472.5,-192.5,-245.0
17.32,194.59,990.64,875.0,-490.0,-122.5
17.32,194.71,990.4,402.5,87.5,105.0
17.08,194.83,989.91,0.0,-192.5,-17.5
16.96,194.83,989.66,-17.5,-1102.5,-227.5
17.08,194.96,989.79,-17.5,-1085.0,-105.0
17.2,194.96,990.15,-157.5,-332.5,227.5
17.45,194.96,990.64,385.0,-367.5,-52.5
17.57,194.96,990.88,980.0,-910.0,-507.5
17.69,194.83,991.01,805.0,-367.5,-420.0
17.57,194.59,990.88,630.0,227.5,-17.5
17.32,194.47,990.88,840.0,-87.5,-35.0
17.2,194.47,990.4,1032.5,-612.5,-332.5
16.84,194.59,989.79,770.0,-525.0,-87.5
16.59,194.71,989.05,-17.5,-227.5,385.0
16.35,194.83,988.69,-472.5,-420.0,385.0
16.23,194.83,988.69,35.0,-997.5,105.0
16.35,194.83,988.81,297.5,-665.0,367.5
16.35,194.83,988.93,-52.5,122.5,525.0
16.47,194.96,988.93,70.0,-437.5,157.5
16.47,194.96,989.18,385.0,-1102.5,-35.0
16.35,194.96,989.3,175.0,-280.0,402.5
16.47,194.83,989.42,-87.5,420.0,910.0
16.84,194.96,989.54,385.0,-140.0,507.5
17.2,195.2,989.42,805.0,-910.0,-105.0
17.45,195.2,989.42,525.0,-490.0,-140.0
17.45,195.2,989.18,192.5,157.5,157.5
17.45,195.32,988.93,157.5,-227.5,140.0
17.57,195.32,988.81,105.0,-682.5,-227.5
17.57,195.32,988.69,35.0,-420.0,-245.0
17.32,195.08,988.69,-140.0,-192.5,17.5
17.2,194.96,988.81,-70.0,-367.5,35.0
16.96,194.71,989.05,157.5,-577.5,87.5
16.96,194.47,989.3,262.5,-350.0,367.5
16.96,194.35,989.54,210.0,-122.5,507.5
17.08,194.22,989.66,402.5,-245.0,385.0
17.08,194.22,989.91,770.0,-332.5,175.0
17.08,194.47,989.66,910.0,-350.0,192.5
17.08,194.71,989.3,472.5,-122.5,367.5
17.2,194.83,988.81,-140.0,0.0,385.0
17.32,194.96,988.69,-122.5,-367.5,157.5
17.45,194.96,988.69,70.0,-542.5,-70.0
17.57,194.96,988.69,245.0,-577.5,-140.0
17.57,195.2,988.57,140.0,-577.5,-105.0
17.57,195.2,988.57,-105.0,-367.5,-105.0
17.57,195.32,988.57,122.5,-420.0,-122.5
17.81,195.2,988.69,-140.0,-210.0,-140.0
17.81,195.2,988.81,-140.0,-280.0,-315.0
17.81,194.96,988.93,245.0,-612.5,-367.5
17.81,194.83,989.18,227.5,-455.0,-332.5
17.57,194.59,989.42,52.5,-70.0,-192.5
17.45,194.35,989.54,385.0,-87.5,-105.0
17.32,194.22,989.42,735.0,-647.5,-175.0
17.2,194.22,989.18,-70.0,-525.0,-52.5
17.2,194.22,989.05,-192.5,-472.5,-17.5
17.2,194.22,989.18,-17.5,-875.0,-35.0
17.32,194.35,989.3,105.0,-735.0,-210.0
17.32,194.35,989.54,262.5,-717.5,-192.5
17.45,194.22,989.91,87.5,-402.5,-87.5
17.57,193.86,990.4,280.0,-210.0,-70.0
17.57,193.49,990.88,612.5,-507.5,-105.0
17.57,193.25,991.25,962.5,-420.0,-105.0
17.57,193.25,991.49,997.5,227.5,350.0
17.81,193.49,991.37,1102.5,332.5,262.5
17.93,193.86,991.01,1137.5,-280.0,-122.5
18.06,194.22,990.27,717.5,-367.5,-420.0
18.06,194.47,989.54,297.5,-52.5,-315.0
18.18,194.83,988.93,-297.5,122.5,-350.0
18.18,194.96,988.69,-367.5,-455.0,-665.0
17.93,195.2,988.57,-297.5,-1015.0,-805.0
17.81,195.08,988.69,-577.5,-717.5,-490.0
17.69,194.83,989.42,-805.0,122.5,-70.0
17.57,194.47,990.27,157.5,0.0,-157.5
17.57,194.22,990.88,875.0,-437.5,-175.0
17.57,194.22,991.13,805.0,-210.0,-280.0
17.57,194.22,991.01,752.5,-87.5,-122.5
17.57,194.22,990.88,682.5,35.0,-105.0
17.57,194.35,990.52,770.0,-140.0,-192.5
17.57,194.47,989.91,420.0,-245.0,-350.0
17.57,194.71,989.42,70.0,-437.5,-507.5
17.57,194.71,989.18,-262.5,-560.0,-577.5
17.45,194.71,989.54,-420.0,-227.5,-455.0
17.32,194.47,989.91,-35.0,-175.0,-245.0
17.08,194.35,990.4,472.5,-315.0,-280.0
16.96,194.22,990.64,735.0,-402.5,-192.5
16.59,194.1,990.76,700.0,-297.5,35.0
16.35,194.1,990.52,560.0,-227.5,122.5
16.23,194.22,990.27,350.0,-402.5,175.0
16.1,194.22,990.15,175.0,-297.5,157.5
16.1,194.22,990.27,385.0,-105.0,280.0
16.1,194.47,990.15,490.0,-245.0,245.0
16.23,194.59,989.91,332.5,-665.0,17.5
16.35,194.71,989.79,-87.5,-490.0,-105.0
16.47,194.71,989.91,-70.0,-157.5,0.0
16.47,194.59,990.03,262.5,-385.0,17.5
16.47,194.59,990.15,280.0,-595.0,-105.0
16.47,194.47,990.15,332.5,-560.0,-157.5
16.59,194.47,990.15,280.0,-315.0,-35.0
16.59,194.35,990.27,0.0,-70.0,35.0
16.59,194.35,990.4,70.0,-455.0,-70.0
16.59,194.47,990.64,542.5,-805.0,-157.5
16.47,194.59,990.88,612.5,-507.5,-52.5
16.47,194.59,990.76,560.0,-367.5,-35.0
16.47,194.47,990.64,560.0,-665.0,-122.5
16.59,194.22,990.64,385.0,-560.0,-245.0
16.59,194.1,990.76,420.0,-472.5,-52.5
16.47,193.98,991.01,682.5,-192.5,140.0
16.35,194.1,991.01,945.0,-52.5,280.0
16.23,194.35,990.64,1015.0,-402.5,245.0
16.35,194.71,989.91,577.5,-717.5,17.5
16.35,194.96,989.3,-157.5,-490.0,105.0
16.47,195.08,989.18,-332.5,-105.0,140.0
16.59,195.2,989.05,-210.0,-227.5,-17.5
16.71,195.2,989.05,-227.5,-770.0,-245.0
16.71,195.2,989.42,-455.0,-630.0,-157.5
16.84,194.96,990.15,-192.5,-157.5,70.0
17.08,194.71,990.88,542.5,35.0,87.5
17.32,194.71,991.25,1172.5,-192.5,-175.0
17.57,194.83,991.25,962.5,-17.5,-227.5
17.57,194.96,990.88,542.5,192.5,-192.5
17.45,195.2,990.64,385.0,122.5,-105.0
17.32,195.32,990.4,210.0,122.5,-175.0
17.2,195.44,990.15,105.0,-52.5,-315.0
17.08,195.32,990.03,0.0,-437.5,-367.5
16.84,195.2,990.03,52.5,-472.5,-385.0
16.59,195.2,990.15,52.5,-350.0,-227.5
16.1,194.96,990.27,52.5,-245.0,-87.5
15.86,194.83,990.4,192.5,-175.0,192.5
15.62,194.71,990.4,70.0,-192.5,420.0
15.37,194.71,990.52,70.0,-280.0,385.0
15.37,194.59,990.76,490.0,-437.5,385.0
15.37,194.59,990.88,560.0,-297.5,507.5
15.49,194.83,990.64,140.0,-140.0,595.0
15.74,194.96,990.64,52.5,-350.0,332.5
16.1,195.08,990.88,297.5,-700.0,35.0
16.59,195.2,990.88,402.5,-542.5,-227.5
16.96,195.2,990.88,315.0,-262.5,-315.0
17.2,195.32,991.01,245.0,52.5,-332.5
17.08,195.44,990.88,577.5,-332.5,-560.0
16.84,195.69,990.52,560.0,-665.0,-577.5
16.71,195.69,990.15,-262.5,-297.5,-437.5
16.59,195.44,990.15,-332.5,-175.0,-280.0
16.35,195.44,990.4,52.5,-332.5,-210.0
16.1,195.2,990.4,-87.5,-332.5,-262.5
15.86,195.08,990.64,-192.5,-577.5,-157.5
15.74,194.96,991.01,105.0,-647.5,122.5
15.86,194.96,991.37,245.0,-210.0,367.5
15.86,194.83,991.74,280.0,-245.0,227.5
16.1,194.71,991.98,770.0,-770.0,-122.5
16.35,194.71,992.23,875.0,-630.0,-210.0
16.35,194.59,992.1,630.0,-70.0,-175.0
16.35,194.59,991.98,507.5,-262.5,-175.0
16.35,194.59,991.86,507.5,-542.5,-315.0
16.35,194.59,991.86,630.0,-612.5,-297.5
16.35,194.59,991.86,630.0,-490.0,-192.5
16.35,194.59,991.86,682.5,-455.0,-192.5
16.35,194.71,991.74,700.0,-647.5,-315.0
16.47,194.83,991.62,647.5,-402.5,-297.5
16.35,195.2,991.37,542.5,-192.5,-280.0
16.1,195.44,990.88,455.0,-577.5,-262.5
15.86,195.57,990.52,-17.5,-700.0,-245.0
15.62,195.57,990.27,-105.0,-717.5,70.0
15.49,195.57,990.27,-122.5,-542.5,367.5
15.62,195.57,990.52,-315.0,-262.5,367.5
15.98,195.57,991.01,-210.0,-402.5,87.5
16.1,195.57,991.49,367.5,-560.0,-210.0
16.23,195.44,991.98,665.0,-332.5,-157.5
16.1,195.44,992.1,612.5,35.0,52.5
16.1,195.44,991.86,525.0,-140.0,35.0
15.98,195.44,991.49,420.0,-560.0,-105.0
15.98,195.44,991.13,122.5,-717.5,-175.0
15.86,195.44,991.13,-52.5,-332.5,70.0
15.86,195.32,991.13,-122.5,-52.5,332.5
15.86,195.2,991.37,87.5,-192.5,350.0
15.98,195.2,991.49,367.5,-542.5,175.0
16.1,195.2,991.74,560.0,-455.0,175.0
16.1,195.2,991.86,507.5,-192.5,245.0
16.23,195.32,991.74,437.5,-175.0,192.5
16.35,195.44,991.49,350.0,-245.0,87.5
16.47,195.57,991.25,280.0,-385.0,-17.5
16.47,195.69,991.13,70.0,-402.5,-105.0
16.47,195.57,991.13,87.5,-332.5,-70.0
16.47,195.57,991.25,245.0,-315.0,-52.5
16.35,195.44,991.25,455.0,-560.0,-122.5
16.35,195.32,991.25,227.5,-245.0,105.0
16.35,195.2,991.37,455.0,-140.0,122.5
16.47,195.2,991.37,525.0,-367.5,105.0
16.59,195.2,991.25,472.5,-455.0,-70.0
16.59,195.44,991.13,402.5,-385.0,70.0
16.59,195.57,991.13,315.0,-157.5,-52.5
16.59,195.69,990.88,630.0,-490.0,-87.5
16.59,195.81,990.64,297.5,-280.0,-157.5
16.59,195.81,990.27,-157.5,-297.5,-175.0
16.59,195.69,990.27,-490.0,-595.0,-140.0
16.59,195.57,990.64,-245.0,-822.5,-157.5
16.59,195.44,991.13,210.0,-805.0,52.5
16.84,195.57,991.49,647.5,-577.5,-87.5
16.96,195.44,991.62,805.0,-822.5,-105.0
17.2,195.44,991.74,490.0,-87.5,-192.5
17.2,195.32,991.62,700.0,70.0,-262.5
17.08,195.44,991.25,630.0,-507.5,-315.0
17.08,195.44,990.88,175.0,-420.0,-367.5
16.84,195.44,990.88,87.5,-262.5,-175.0
16.84,195.44,990.88,122.5,-122.5,-17.5
16.59,195.57,990.76,210.0,-402.5,-70.0
16.59,195.57,990.76,157.5,-647.5,-35.0
16.59,195.44,990.88,122.5,-297.5,52.5
16.59,195.44,991.01,350.0,-35.0,52.5
16.59,195.44,990.88,385.0,-385.0,-35.0
16.47,195.57,990.88,262.5,-560.0,-157.5
16.35,195.57,990.76,227.5,-525.0,122.5
16.47,195.57,991.01,-105.0,17.5,402.5
16.71,195.57,991.25,227.5,-52.5,227.5
16.96,195.69,991.37,595.0,-437.5,-175.0
17.08,195.81,991.49,700.0,-420.0,-420.0
17.08,195.93,991.37,402.5,140.0,-245.0
16.96,195.93,991.13,490.0,-175.0,-245.0
16.71,195.93,990.88,315.0,-630.0,-315.0
16.47,195.93,990.64,-105.0,-437.5,-245.0
16.1,195.81,990.64,-140.0,-280.0,35.0
15.86,195.69,990.76,192.5,-437.5,175.0
15.62,195.57,990.88,280.0,-507.5,350.0
15.37,195.44,990.88,105.0,-262.5,507.5
15.37,195.32,991.13,227.5,-157.5,612.5
15.37,195.2,991.25,490.0,-402.5,630.0
15.49,195.2,991.37,525.0,-227.5,665.0
15.62,195.44,991.13,367.5,-52.5,717.5
15.74,195.69,990.76,350.0,-542.5,437.5
15.98,195.93,990.4,227.5,-997.5,227.5
16.1,196.05,990.15,-262.5,-490.0,245.0
16.35,196.18,990.15,-455.0,-157.5,420.0
16.59,196.05,990.4,-210.0,-525.0,157.5
16.96,196.05,990.64,192.5,-910.0,-280.0
17.08,195.93,990.88,192.5,-752.5,-227.5
17.08,195.69,991.13,87.5,-35.0,17.5
17.08,195.69,991.37,280.0,-17.5,87.5
16.96,195.69,991.37,455.0,-490.0,-227.5
16.71,195.69,991.13,350.0,-630.0,-192.5
16.47,195.57,991.13,245.0,-122.5,245.0
16.23,195.44,990.88,70.0,52.5,455.0
16.1,195.44,990.64,0.0,-717.5,227.5
15.98,195.44,990.64,-175.0,-1032.5,210.0
16.1,195.32,990.88,-280.0,-542.5,560.0
16.1,195.44,991.13,122.5,-367.5,682.5
16.23,195.44,991.37,455.0,-875.0,332.5
16.35,195.44,991.37,455.0,-927.5,157.5
16.47,195.08,991.37,210.0,-315.0,437.5
16.59,194.71,991.49,157.5,-105.0,577.5
16.71,194.47,991.62,525.0,-385.0,455.0
16.84,194.59,991.62,787.5,-647.5,367.5
16.96,194.71,991.25,472.5,-350.0,472.5
17.08,194.83,990.88,52.5,-297.5,472.5
17.32,194.96,990.76,-87.5,-542.5,297.5
17.32,195.2,990.64,262.5,-455.0,262.5
17.57,195.32,990.4,70.0,-210.0,192.5
17.69,195.44,990.27,-367.5,-367.5,-17.5
17.69,195.32,990.4,-350.0,-612.5,-175.0
17.57,195.08,990.76,17.5,-595.0,87.5
17.57,194.83,991.25,210.0,-245.0,385.0
17.69,194.83,991.37,437.5,-245.0,262.5
17.81,194.83,991.37,700.0,-472.5,140.0
17.81,194.96,991.37,560.0,-332.5,70.0
17.81,194.96,991.13,87.5,0.0,140.0
17.81,195.08,990.76,-35.0,17.5,70.0
17.81,195.08,990.64,-35.0,-332.5,-52.5
17.81,194.96,990.52,-157.5,-402.5,-105.0
17.81,194.71,990.64,-210.0,-315.0,0.0
17.69,194.47,990.88,-105.0,-332.5,87.5
17.69,194.35,991.25,210.0,-280.0,17.5
17.81,194.1,991.49,367.5,-210.0,122.5
17.81,193.98,991.62,472.5,-122.5,87.5
17.81,193.86,991.62,700.0,-262.5,52.5
17.81,193.86,991.49,525.0,-280.0,17.5
17.93,193.86,991.37,332.5,-262.5,-17.5
18.06,193.86,991.37,297.5,-315.0,-87.5
18.3,193.86,991.49,472.5,-262.5,-175.0
18.42,193.98,991.49,472.5,-175.0,-245.0
18.54,194.1,991.49,560.0,-280.0,-507.5
18.3,194.1,991.37,595.0,-437.5,-507.5
18.06,194.1,991.13,525.0,-245.0,-402.5
17.81,194.1,990.76,385.0,-210.0,-210.0
17.69,194.1,990.4,157.5,-437.5,-210.0
17.57,194.47,990.15,-210.0,-700.0,-297.5
17.57,194.59,990.27,-455.0,-577.5,-245.0
17.32,194.71,990.76,-17.5,-385.0,-17.5
17.32,194.83,991.01,490.0,-350.0,-17.5
17.2,194.71,991.01,577.5,-700.0,-227.5
17.08,194.47,991.13,297.5,-595.0,-245.0
16.84,194.1,991.25,367.5,-280.0,122.5
16.84,193.74,991.25,455.0,-350.0,297.5
16.84,193.74,991.25,437.5,-560.0,157.5
16.96,193.74,991.25,262.5,-385.0,210.0
17.08,193.74,991.49,402.5,52.5,332.5
17.32,193.86,991.37,682.5,-70.0,210.0
17.45,194.1,991.13,700.0,-595.0,-87.5
17.57,194.47,990.64,367.5,-525.0,-157.5
17.57,194.59,990.15,-227.5,-332.5,-227.5
17.32,194.71,989.91,-350.0,-647.5,-262.5
17.2,194.71,990.15,-455.0,-770.0,-105.0
17.2,194.47,990.4,-367.5,-735.0,70.0
17.2,194.35,991.13,122.5,-612.5,227.5
17.45,194.22,991.62,455.0,-367.5,210.0
17.57,194.1,991.98,735.0,-227.5,35.0
17.69,194.22,992.1,822.5,-297.5,-122.5
17.57,194.22,991.86,840.0,-332.5,-157.5
17.45,194.35,991.25,490.0,-297.5,-52.5
17.32,194.47,990.88,-157.5,-210.0,-17.5
17.32,194.47,990.64,-245.0,-542.5,-35.0
17.32,194.35,990.64,-315.0,-577.5,-52.5
17.32,194.22,991.01,-175.0,-437.5,17.5
17.45,193.98,991.62,122.5,-262.5,175.0
17.57,193.86,992.1,770.0,-210.0,210.0
17.69,193.86,992.23,997.5,-315.0,70.0
17.69,193.98,991.86,787.5,-455.0,-70.0
17.81,194.1,991.62,332.5,-262.5,87.5
17.81,194.22,991.37,35.0,-70.0,175.0
17.81,194.47,991.13,87.5,-507.5,17.5
18.18,194.47,991.13,17.5,-805.0,-297.5
18.42,194.47,991.25,-192.5,-542.5,-455.0
18.42,194.47,991.74,280.0,-332.5,-402.5
18.42,194.22,991.98,612.5,-420.0,-367.5
18.3,194.22,991.98,700.0,-437.5,-455.0
18.18,194.22,991.86,770.0,-402.5,-367.5
18.06,194.22,991.62,315.0,-17.5,-210.0
17.93,194.47,991.13,-332.5,-210.0,-122.5
17.93,194.59,990.88,-647.5,-577.5,-210.0
17.81,194.59,991.37,-315.0,-350.0,-210.0
17.81,194.59,991.86,315.0,-157.5,-35.0
17.69,194.47,992.1,612.5,-490.0,-227.5
17.57,194.22,992.23,735.0,-630.0,-402.5
17.45,193.74,992.35,595.0,-192.5,-122.5
17.2,193.49,992.47,560.0,210.0,262.5
17.08,193.25,992.35,507.5,140.0,490.0
17.08,193.25,992.23,647.5,-402.5,245.0
17.32,193.49,992.1,805.0,-787.5,17.5
17.57,193.74,991.86,437.5,-507.5,35.0
17.81,193.98,991.62,280.0,-245.0,0.0
18.06,194.22,991.62,350.0,-105.0,-122.5
18.18,194.47,991.25,402.5,-437.5,-507.5
18.06,194.71,990.88,245.0,-910.0,-630.0
17.81,194.71,990.76,-157.5,-840.0,-525.0
17.57,194.71,990.88,-192.5,-577.5,-192.5
17.45,194.47,991.25,-70.0,-280.0,140.0
17.45,194.47,991.74,332.5,-157.5,87.5
17.45,194.59,991.86,787.5,-402.5,-105.0
17.32,194.71,991.62,875.0,-507.5,-280.0
17.32,194.83,991.01,455.0,-560.0,-175.0
17.2,194.96,990.27,-280.0,-332.5,35.0
17.2,194.83,989.79,-735.0,-280.0,122.5
17.2,194.71,989.79,-805.0,-542.5,0.0
17.32,194.47,990.27,-525.0,-682.5,-227.5
17.08,194.22,990.88,-35.0,-875.0,-105.0
16.96,193.86,991.37,70.0,-490.0,227.5
16.84,193.49,991.86,140.0,52.5,560.0
16.96,193.25,992.23,525.0,-157.5,525.0
17.08,193.37,992.23,927.5,-630.0,280.0
17.08,193.49,992.1,752.5,-770.0,280.0
17.32,193.74,991.86,280.0,-420.0,385.0
17.57,193.86,991.74,122.5,-157.5,385.0
17.81,193.98,991.74,245.0,-210.0,192.5
18.3,193.98,991.74,402.5,-455.0,-122.5
18.54,194.22,991.62,350.0,-542.5,-315.0
18.54,194.22,991.49,315.0,-525.0,-437.5
18.42,194.1,991.37,175.0,-420.0,-245.0
18.3,193.98,991.37,-105.0,-157.5,-105.0
18.3,193.74,991.49,262.5,-87.5,52.5
18.18,193.74,991.37,332.5,-350.0,-35.0
18.18,193.86,991.25,87.5,-770.0,-245.0
18.06,193.86,991.37,-122.5,-1032.5,-192.5
18.06,193.98,991.74,192.5,-595.0,122.5
18.06,193.98,991.98,280.0,-87.5,350.0
18.18,193.98,991.98,437.5,-350.0,52.5
18.3,193.74,991.98,542.5,-577.5,-227.5
18.42,193.61,992.1,630.0,-420.0,-280.0
18.3,193.49,991.98,595.0,-297.5,52.5
18.42,193.49,991.86,210.0,70.0,227.5
18.54,193.49,991.74,350.0,-210.0,35.0
18.54,193.61,991.62,420.0,-490.0,-105.0
18.54,193.74,991.49,245.0,-192.5,-140.0
18.54,193.74,991.37,87.5,-17.5,-17.5
18.54,193.74,991.37,297.5,-297.5,-122.5
18.67,193.74,991.37,210.0,-315.0,-367.5
18.54,193.74,991.37,280.0,-385.0,-402.5
18.18,193.61,991.37,122.5,-420.0,-52.5
17.93,193.49,991.62,175.0,-297.5,210.0
17.93,193.49,991.74,490.0,-455.0,297.5
18.06,193.61,991.86,647.5,-315.0,140.0
18.06,193.86,991.74,577.5,-245.0,87.5
18.18,193.98,991.37,420.0,-210.0,-35.0
18.06,194.22,990.88,385.0,-455.0,-52.5
17.93,194.35,990.52,-87.5,-560.0,0.0
17.81,194.35,990.4,-472.5,-227.5,-52.5
17.69,194.22,990.52,-367.5,-595.0,-52.5
17.57,193.98,990.88,-175.0,-595.0,52.5
17.45,193.61,991.37,175.0,-332.5,245.0
17.32,193.37,991.62,367.5,-402.5,490.0
17.2,193.13,991.86,437.5,-350.0,507.5
17.32,193.0,991.98,560.0,-210.0,525.0
17.57,193.0,991.86,682.5,-280.0,595.0
17.69,193.25,991.62,577.5,-367.5,437.5
17.93,193.49,991.37,332.5,-280.0,350.0
18.06,193.74,991.25,210.0,-402.5,297.5
18.3,193.98,991.01,105.0,-542.5,105.0
18.67,194.1,991.01,52.5,-752.5,-157.5
18.91,194.1,990.88,140.0,-840.0,-367.5
19.15,193.98,991.13,-140.0,-595.0,-297.5
19.28,193.86,991.49,-52.5,-175.0,-175.0
19.28,193.86,991.86,490.0,-297.5,-297.5
19.28,193.74,991.98,857.5,-560.0,-402.5
19.03,193.74,991.86,490.0,-175.0,-367.5
18.79,193.61,991.74,437.5,0.0,-52.5
18.54,193.61,991.37,542.5,-87.5,105.0
18.54,193.74,990.88,52.5,-647.5,-87.5
18.42,193.86,990.64,-595.0,-997.5,-105.0
18.42,193.86,991.13,-490.0,-507.5,192.5
18.54,193.74,991.74,420.0,-332.5,245.0
18.67,193.74,992.1,787.5,-735.0,-70.0
18.79,193.74,992.1,857.5,-822.5,-367.5
18.79,193.61,991.86,700.0,-507.5,-175.0
18.67,193.49,991.74,192.5,-52.5,122.5
18.67,193.37,991.62,-105.0,-175.0,140.0
18.67,193.25,991.62,87.5,-437.5,70.0
18.67,193.25,991.86,420.0,-315.0,192.5
18.79,193.25,991.86,402.5,-140.0,280.0
18.79,193.37,991.74,332.5,-297.5,70.0
18.91,193.49,991.62,315.0,-542.5,-52.5
18.91,193.49,991.74,367.5,-192.5,-140.0
18.79,193.61,991.49,385.0,-227.5,0.0
18.54,193.74,991.13,17.5,-437.5,-17.5
18.42,193.74,991.01,-332.5,-542.5,52.5
18.42,193.61,991.37,-350.0,-297.5,332.5
18.54,193.61,991.86,140.0,0.0,455.0
18.79,193.74,992.35,682.5,-297.5,227.5
19.03,193.86,992.35,787.5,-367.5,-87.5
19.15,193.98,992.1,787.5,-385.0,-280.0
19.15,194.1,991.62,525.0,-472.5,-227.5
19.03,194.1,991.13,-105.0,-455.0,-210.0
19.15,193.98,991.13,-560.0,-297.5,-175.0
19.03,193.86,991.37,-140.0,-280.0,-175.0
18.79,193.61,991.74,455.0,-595.0,-70.0
18.79,193.37,991.86,315.0,-490.0,-17.5
18.67,193.25,991.98,157.5,-332.5,35.0
18.54,193.0,992.1,525.0,-420.0,122.5
18.42,192.88,991.98,577.5,-350.0,210.0
18.54,192.88,991.86,122.5,-245.0,297.5
18.54,192.88,991.86,70.0,-280.0,315.0
18.54,192.88,991.98,332.5,-367.5,297.5
18.79,193.0,992.1,332.5,-262.5,210.0
19.03,193.13,992.35,402.5,-332.5,17.5
19.28,193.25,992.35,647.5,-455.0,-175.0
19.52,193.37,992.35,647.5,-455.0,-175.0
19.64,193.49,992.35,280.0,-35.0,-262.5
19.76,193.74,992.23,455.0,-105.0,-472.5
19.64,193.86,991.86,507.5,-385.0,-437.5
19.52,193.74,991.62,-87.5,-105.0,-367.5
19.28,193.61,991.62,-35.0,-157.5,-350.0
18.91,193.49,991.62,560.0,-437.5,-297.5
18.67,193.49,991.37,227.5,-122.5,-140.0
18.42,193.49,991.25,-420.0,-367.5,-35.0
18.18,193.49,991.37,-297.5,-910.0,35.0
18.06,193.49,991.86,175.0,-612.5,140.0
18.18,193.49,992.23,525.0,-332.5,262.5
18.3,193.49,992.35,420.0,-525.0,140.0
18.54,193.25,992.47,612.5,-507.5,-192.5
18.54,193.0,992.59,717.5,-560.0,-105.0
18.54,192.88,992.59,385.0,-245.0,52.5
18.54,193.0,992.47,402.5,-35.0,175.0
18.67,193.13,992.35,560.0,-210.0,140.0
18.91,193.25,992.1,385.0,-402.5,-140.0
19.03,193.37,991.86,35.0,-350.0,-332.5
18.91,193.37,991.86,122.5,-437.5,-175.0
18.79,193.49,991.86,280.0,-297.5,-35.0
18.79,193.49,991.62,297.5,-367.5,-175.0
18.67,193.61,991.49,-17.5,-630.0,-227.5
18.42,193.49,991.74,-140.0,-455.0,-192.5
18.3,193.37,992.1,87.5,-332.5,192.5
18.3,193.25,992.35,525.0,-385.0,350.0
18.42,193.37,992.35,577.5,-385.0,315.0
18.67,193.49,992.35,420.0,-332.5,52.5
18.79,193.61,992.23,577.5,-297.5,-87.5
18.79,193.74,991.86,280.0,-245.0,-87.5
18.79,193.98,991.62,-105.0,-192.5,-227.5
18.79,193.98,991.37,-105.0,-577.5,-262.5
18.79,193.74,991.37,-210.0,-595.0,-280.0
18.67,193.61,991.62,-262.5,-402.5,-140.0
18.54,193.37,992.1,-70.0,-227.5,-35.0
18.54,193.13,992.47,280.0,-210.0,192.5
18.42,193.0,992.71,350.0,-210.0,210.0
18.42,192.88,992.96,665.0,-262.5,157.5
18.42,192.88,992.96,945.0,-595.0,175.0
18.54,193.0,992.59,525.0,-420.0,262.5
18.67,193.25,992.35,-52.5,-140.0,262.5
18.91,193.37,992.35,105.0,-350.0,70.0
19.03,193.37,992.47,455.0,-507.5,-70.0
19.28,193.49,992.59,367.5,-542.5,-192.5
19.4,193.49,992.59,227.5,-315.0,-280.0
19.4,193.49,992.59,367.5,-227.5,-297.5
19.4,193.49,992.47,332.5,-402.5,-437.5
19.28,193.49,992.35,245.0,-490.0,-367.5
19.28,193.37,992.23,122.5,-525.0,-262.5
19.28,193.25,992.35,140.0,-297.5,-262.5
19.15,193.25,992.47,367.5,-315.0,-245.0
19.03,193.37,992.59,455.0,-437.5,-315.0
18.79,193.25,992.35,297.5,-332.5,-210.0
18.67,193.25,992.35,105.0,17.5,0.0
18.54,193.25,992.23,525.0,-70.0,105.0
18.42,193.25,991.98,175.0,-280.0,35.0
18.42,193.37,991.62,-280.0,-647.5,-122.5
18.42,193.37,991.74,-350.0,-927.5,0.0
18.42,193.49,992.1,-70.0,-577.5,105.0
18.54,193.49,992.35,122.5,-402.5,157.5
18.79,193.49,992.59,262.5,-490.0,-105.0
19.03,193.13,992.84,455.0,-595.0,-315.0
19.03,192.76,993.08,577.5,-262.5,-262.5
18.91,192.52,993.32,647.5,-70.0,-17.5
18.79,192.52,993.32,595.0,-105.0,140.0
18.67,192.64,993.2,875.0,-332.5,70.0
18.79,192.76,992.84,647.5,-542.5,-17.5
18.79,193.0,992.35,472.5,-560.0,-70.0
18.79,193.13,991.86,175.0,-577.5,-52.5
18.67,193.25,991.62,-17.5,-472.5,-70.0
18.67,193.49,991.49,-70.0,-472.5,-140.0
18.54,193.49,991.49,-157.5,-350.0,-192.5
18.3,193.49,991.62,-210.0,-420.0,-52.5
18.18,193.25,991.98,0.0,-542.5,70.0
18.18,193.25,992.35,385.0,-612.5,332.5
18.3,193.13,992.59,350.0,-245.0,350.0
18.54,193.13,992.84,332.5,245.0,367.5
18.79,193.25,992.96,822.5,17.5,192.5
18.91,193.37,992.47,857.5,-525.0,-175.0
19.03,193.49,991.98,262.5,-560.0,-262.5
19.03,193.61,991.62,-192.5,-350.0,-227.5
19.03,193.74,991.62,-227.5,-367.5,-262.5
18.79,193.61,991.49,-315.0,-542.5,-315.0
18.67,193.37,991.74,-175.0,-647.5,-122.5
18.67,193.13,992.1,87.5,-367.5,122.5
18.54,192.88,992.59,472.5,-192.5,192.5
18.54,192.76,992.84,752.5,-262.5,262.5
18.54,192.88,992.96,840.0,-210.0,210.0
18.42,193.0,992.59,647.5,-297.5,280.0
18.54,193.25,992.23,262.5,-455.0,140.0
18.67,193.49,991.86,35.0,-490.0,52.5
18.79,193.49,991.86,0.0,-542.5,-35.0
18.91,193.49,991.74,87.5,-560.0,-122.5
19.03,193.49,991.86,-35.0,-385.0,-175.0
19.15,193.37,992.1,122.5,-367.5,-227.5
19.03,193.25,992.35,507.5,-402.5,-262.5
19.03,193.25,992.47,525.0,-332.5,-227.5
18.91,193.13,992.35,245.0,-192.5,-140.0
18.79,193.13,992.35,297.5,-315.0,-122.5
18.67,193.25,992.1,437.5,-525.0,-35.0
18.79,193.25,992.1,105.0,-332.5,17.5
18.79,193.25,992.1,0.0,-175.0,-17.5
18.79,193.25,992.23,385.0,-192.5,17.5
18.79,193.25,992.23,507.5,-437.5,-122.5
18.91,193.25,992.1,350.0,-525.0,-157.5
19.03,193.25,992.1,157.5,-280.0,-70.0
19.03,193.25,992.1,280.0,-297.5,-105.0
19.03,193.25,992.23,455.0,-472.5,-192.5
19.03,193.37,992.1,280.0,-210.0,-210.0
19.03,193.37,991.86,175.0,-245.0,-140.0
19.03,193.37,991.98,402.5,-227.5,-140.0
19.03,193.49,991.74,315.0,-280.0,-280.0
18.79,193.61,991.49,140.0,-980.0,-437.5
18.67,193.61,991.37,-175.0,-1225.0,-350.0
18.42,193.49,991.62,-210.0,-787.5,17.5
18.3,193.25,991.98,-192.5,-297.5,420.0
18.3,193.13,992.59,140.0,-245.0,350.0
18.42,192.88,993.08,910.0,-560.0,210.0
18.42,192.64,993.32,962.5,-280.0,245.0
18.54,192.52,993.32,752.5,175.0,402.5
18.54,192.52,993.32,892.5,87.5,437.5
18.67,192.76,992.84,962.5,-350.0,210.0
18.79,193.0,992.23,542.5,-490.0,122.5
19.03,193.25,991.74,140.0,-315.0,70.0
19.15,193.49,991.49,17.5,-402.5,17.5
19.28,193.74,991.37,-35.0,-367.5,-105.0
19.52,193.74,991.37,87.5,-315.0,-245.0
19.28,193.74,991.49,105.0,-332.5,-297.5
19.03,193.74,991.49,122.5,-472.5,-210.0
18.79,193.61,991.74,17.5,-385.0,-52.5
18.3,193.49,991.86,245.0,-297.5,245.0
18.18,193.37,992.1,385.0,-402.5,507.5
18.18,193.25,992.1,280.0,-280.0,490.0
18.3,193.25,992.1,332.5,-402.5,455.0
18.42,193.37,992.1,472.5,-525.0,245.0
18.54,193.49,992.1,525.0,-297.5,210.0
18.79,193.49,991.98,210.0,-210.0,210.0
18.91,193.49,991.86,140.0,-420.0,35.0
19.03,193.49,991.74,87.5,-612.5,35.0
18.91,193.37,991.86,-87.5,-227.5,157.5
18.91,193.25,991.98,70.0,-192.5,315.0
18.91,193.13,992.23,315.0,-402.5,175.0
18.79,193.0,992.35,542.5,-490.0,122.5
18.67,193.0,992.47,507.5,-367.5,315.0
18.54,193.0,992.47,472.5,-262.5,472.5
18.54,193.0,992.35,437.5,-367.5,612.5
18.67,193.0,992.23,402.5,-402.5,560.0
18.91,193.25,992.1,437.5,-560.0,437.5
19.28,193.49,991.98,262.5,-350.0,297.5
19.64,193.74,991.86,297.5,-472.5,140.0
20.01,193.86,991.86,210.0,-630.0,-175.0
20.25,193.86,991.74,122.5,-560.0,-402.5
20.37,193.86,991.86,280.0,-507.5,-455.0
20.25,193.86,991.86,280.0,-437.5,-385.0
20.25,193.74,991.86,262.5,-472.5,-367.5
20.01,193.74,991.98,297.5,-525.0,-350.0
19.89,193.61,991.98,472.5,-507.5,-297.5
19.64,193.49,991.86,402.5,-420.0,-122.5
19.4,193.49,991.86,402.5,-577.5,-87.5
19.15,193.49,991.62,280.0,-612.5,87.5
19.03,193.49,991.49,87.5,-542.5,210.0
18.79,193.49,991.49,122.5,-472.5,437.5
18.91,193.37,991.49,35.0,-367.5,577.5
19.03,193.25,991.49,-87.5,-332.5,595.0
19.28,193.25,991.74,87.5,-350.0,455.0
19.64,193.25,991.98,507.5,-350.0,280.0
20.01,193.25,992.1,647.5,-315.0,157.5
20.25,193.49,991.98,682.5,-245.0,70.0
20.5,193.74,991.74,577.5,-280.0,-175.0
20.62,193.98,991.25,-17.5,-647.5,-367.5
20.74,193.98,991.13,-455.0,-770.0,-367.5
20.86,193.74,991.37,-280.0,-630.0,-227.5
21.11,193.61,991.98,70.0,-332.5,-262.5
21.11,193.49,992.59,525.0,-350.0,-472.5
20.98,193.37,993.08,1120.0,-420.0,-507.5
20.86,193.25,993.2,1522.5,-262.5,-350.0
20.5,193.25,992.59,1137.5,-157.5,-175.0
20.25,193.25,991.98,525.0,-332.5,-157.5
20.13,193.13,991.62,192.5,-367.5,0.0
20.01,193.25,991.49,122.5,-157.5,105.0
19.89,193.25,991.49,315.0,-315.0,122.5
20.01,193.37,991.37,402.5,-595.0,35.0
20.01,193.37,991.37,227.5,-472.5,17.5
20.01,193.49,991.49,280.0,-140.0,210.0
20.13,193.49,991.62,472.5,70.0,192.5
20.25,193.61,991.37,402.5,-332.5,-122.5
20.25,193.86,991.13,192.5,-595.0,-262.5
20.13,193.98,991.13,157.5,-472.5,-52.5
20.25,193.98,991.13,192.5,-367.5,157.5
20.37,194.1,991.25,122.5,-297.5,0.0
20.62,194.22,991.37,315.0,-402.5,-350.0
20.62,194.22,991.37,542.5,-595.0,-472.5
20.62,194.35,991.13,122.5,-262.5,-332.5
20.5,194.22,991.01,-227.5,-87.5,-245.0
20.25,194.1,991.13,-122.5,-297.5,-192.5
20.13,193.86,991.37,122.5,-385.0,-175.0
19.89,193.61,991.62,262.5,-210.0,-17.5
19.64,193.37,991.86,420.0,-280.0,175.0
19.4,193.25,991.86,525.0,-332.5,402.5
19.28,193.25,991.98,192.5,-52.5,525.0
19.4,193.13,992.23,385.0,70.0,577.5
19.52,193.13,992.23,770.0,-87.5,507.5
19.64,193.25,991.98,752.5,-262.5,420.0
19.76,193.49,991.62,472.5,-297.5,332.5
20.01,193.74,991.37,227.5,-315.0,227.5
20.13,193.98,991.13,140.0,-367.5,35.0
20.25,194.1,990.88,0.0,-542.5,-17.5
20.25,194.22,990.76,-70.0,-525.0,-122.5
20.25,194.1,990.76,-140.0,-507.5,-122.5
20.25,193.98,991.01,-87.5,-472.5,-122.5
20.13,193.86,991.37,315.0,-402.5,-52.5
20.01,193.74,991.49,490.0,-297.5,105.0
20.01,193.74,991.49,577.5,-227.5,175.0
19.76,193.86,991.25,630.0,-332.5,105.0
19.64,193.98,990.76,402.5,-525.0,175.0
19.52,193.98,990.4,-192.5,-227.5,455.0
19.52,193.98,990.15,-542.5,35.0,595.0
19.76,193.86,990.4,-140.0,-245.0,420.0
20.13,193.74,990.88,455.0,-402.5,157.5
20.5,193.74,991.01,665.0,-280.0,17.5
20.5,193.86,990.88,647.5,-402.5,-70.0
20.74,193.98,990.64,385.0,-297.5,-262.5
20.74,193.98,990.27,175.0,-315.0,-297.5
20.74,193.98,990.15,262.5,-140.0,-280.0
20.74,194.1,989.91,262.5,-227.5,-315.0
20.74,194.1,989.42,-140.0,-787.5,-385.0
20.74,193.98,989.66,-490.0,-840.0,-437.5
20.62,193.74,990.27,-52.5,-437.5,-210.0
20.5,193.74,990.76,665.0,-490.0,-122.5
20.5,193.86,990.88,875.0,-735.0,-332.5
20.5,193.74,990.88,787.5,-700.0,-385.0
20.37,193.61,990.64,490.0,-227.5,-245.0
20.25,193.49,990.64,262.5,0.0,-105.0
20.25,193.25,990.64,472.5,-315.0,-175.0
20.01,193.25,990.52,577.5,-385.0,-105.0
20.01,193.37,990.4,315.0,-262.5,35.0
20.13,193.49,990.27,-35.0,-192.5,-87.5
20.25,193.49,990.4,210.0,-315.0,-175.0
20.25,193.61,990.52,437.5,-367.5,-122.5
20.37,193.74,990.4,350.0,122.5,-70.0
20.5,193.98,990.15,87.5,-17.5,-105.0
20.37,193.98,990.15,-35.0,-455.0,-490.0
20.37,193.98,990.27,17.5,-367.5,-437.5
20.25,193.98,990.4,227.5,-122.5,-245.0
20.25,193.98,990.52,420.0,-350.0,-262.5
20.25,193.98,990.4,315.0,-455.0,-490.0
20.13,193.86,990.52,192.5,-210.0,-507.5
19.76,193.61,990.64,87.5,140.0,-210.0
19.28,193.37,990.76,245.0,175.0,17.5
18.91,193.13,990.64,507.5,-210.0,210.0
18.54,193.13,990.64,542.5,-315.0,262.5
18.3,193.0,990.52,455.0,-280.0,402.5
18.06,193.0,990.4,280.0,-262.5,542.5
18.06,193.13,990.15,140.0,-297.5,560.0
18.06,193.13,989.91,0.0,-350.0,595.0
18.3,193.13,990.03,105.0,-332.5,595.0
18.54,193.13,990.15,245.0,-227.5,542.5
18.79,193.25,990.15,157.5,-227.5,385.0
19.03,193.37,990.15,297.5,-385.0,175.0
19.28,193.49,989.91,437.5,-752.5,35.0
19.4,193.74,989.79,157.5,-735.0,-17.5
19.52,193.74,989.66,-17.5,-630.0,-122.5
19.64,193.86,989.66,-17.5,-682.5,-297.5
19.64,193.74,989.66,17.5,-595.0,-350.0
19.52,193.61,989.66,140.0,-647.5,-297.5
19.28,193.49,989.79,192.5,-700.0,-192.5
19.03,193.25,989.91,157.5,-717.5,-122.5
18.91,193.13,989.91,105.0,-647.5,140.0
18.79,192.88,990.15,-87.5,-280.0,315.0
18.79,192.64,990.64,157.5,70.0,455.0
18.79,192.52,990.76,577.5,-227.5,472.5
18.79,192.64,990.64,805.0,-542.5,350.0
18.79,192.76,990.4,542.5,-280.0,402.5
18.79,192.76,990.15,175.0,-52.5,542.5
18.91,193.0,989.91,297.5,-245.0,455.0
19.28,193.25,989.54,70.0,-630.0,175.0
19.64,193.25,989.3,-385.0,-770.0,-157.5
20.01,193.25,989.54,-420.0,-770.0,-175.0
20.25,193.25,990.15,367.5,-962.5,-420.0
20.37,193.37,990.52,700.0,-962.5,-647.5
20.25,193.25,990.64,420.0,-630.0,-630.0
20.01,192.76,990.76,402.5,-437.5,-332.5
19.89,192.27,990.88,332.5,-402.5,-70.0
19.76,192.03,991.25,280.0,-175.0,70.0
19.52,191.78,991.49,682.5,-297.5,245.0
19.4,191.78,991.62,1172.5,-262.5,420.0
19.4,192.03,991.25,927.5,-70.0,490.0
19.52,192.39,990.76,525.0,-210.0,245.0
19.64,192.76,990.03,560.0,-787.5,17.5
19.89,193.13,989.42,52.5,-437.5,105.0
20.13,193.37,989.05,-542.5,-192.5,-52.5
20.25,193.49,989.05,-490.0,-700.0,-297.5
20.37,193.49,989.42,-367.5,-700.0,-437.5
20.5,193.37,990.03,-245.0,-245.0,-210.0
20.74,193.25,990.52,297.5,-227.5,-122.5
20.86,193.0,990.88,595.0,-437.5,-297.5
20.98,193.0,991.13,647.5,-245.0,-507.5
20.86,193.0,991.13,805.0,-262.5,-402.5
20.74,193.0,990.76,595.0,-122.5,-175.0
20.5,193.0,990.4,210.0,-87.5,-297.5
