timestamp_ms,acc_x,acc_y,acc_z,gyro_x,gyro_y,gyro_z
5388,24.89,169.58,996.25,2765.0,11077.5,29067.5
5418,28.43,170.56,995.15,2975.0,11322.5,29190.0
5447,32.45,172.02,993.32,3885.0,8505.0,29820.0
5477,39.77,175.07,990.52,3097.5,7910.0,28647.5
5506,49.29,179.58,987.35,1942.5,6667.5,26075.0
5535,61.37,185.2,983.56,350.0,5722.5,22242.5
5564,75.15,191.91,980.15,-210.0,3622.5,16625.0
5593,88.57,198.86,976.98,332.5,630.0,10867.5
5623,101.75,206.06,973.19,-1137.5,-1715.0,4690.0
5652,113.83,213.01,970.14,-3010.0,-4847.5,-2275.0
5681,124.07,218.87,968.68,-2940.0,-7245.0,-8102.5
5710,132.61,223.87,967.46,-4287.5,-7350.0,-12880.0
5739,138.59,227.53,967.22,-5950.0,-7420.0,-16852.5
5768,143.59,230.21,968.44,-4760.0,-9607.5,-20685.0
5797,147.01,232.65,969.17,-2065.0,-14000.0,-25165.0
5826,148.35,234.97,968.92,-962.5,-17902.5,-28157.5
5855,149.33,236.68,969.66,-6475.0,-9537.5,-28997.5
5884,149.57,236.44,974.29,-10570.0,-2502.5,-30642.5
5913,148.11,234.12,981.49,-3587.5,-6545.0,-33040.0
5942,144.45,230.82,986.74,1855.0,-8382.5,-32847.5
5971,138.1,227.16,988.69,140.0,-3920.0,-30467.5
6000,128.34,222.53,990.03,577.5,-2870.0,-26565.0
6029,115.17,217.28,991.37,3955.0,-4462.5,-19950.0
6058,100.65,212.52,991.49,4200.0,-1802.5,-10237.5
6087,86.62,208.25,991.62,1925.0,2082.5,-927.5
6116,74.3,204.47,992.84,1627.5,4270.0,6405.0
6145,63.68,201.06,994.91,3972.5,4025.0,12775.0
6174,55.88,198.74,996.98,5985.0,5075.0,18427.5
6203,51.24,197.76,997.23,6842.5,6580.0,21787.5
6232,48.31,197.64,995.64,6230.0,7017.5,24657.5
6261,47.82,198.37,992.71,5967.5,6597.5,26390.0
6291,48.92,199.59,987.22,6492.5,4357.5,25760.0
6320,49.53,201.18,980.39,3780.0,4935.0,27492.5
6350,51.97,202.28,974.05,-875.0,7892.5,30887.5
6379,57.58,203.37,970.14,-5022.5,7962.5,31640.0
6409,66.49,204.96,968.44,-3027.5,2992.5,30660.0
6438,80.76,208.13,966.73,-1557.5,1610.0,27982.5
6468,100.16,213.01,965.75,-4200.0,3622.5,21857.5
6497,122.37,218.38,966.97,-5425.0,1505.0,12915.0
6527,143.72,223.5,969.66,-2765.0,-1785.0,2467.5
6556,161.65,228.51,970.51,245.0,-6072.5,-6405.0
6585,176.05,233.26,968.07,-35.0,-7735.0,-13597.5
6614,187.39,236.56,964.65,-4567.5,-7647.5,-19862.5
6643,195.57,237.66,963.43,-7735.0,-7385.0,-24710.0
6672,200.81,236.92,964.41,-8225.0,-9100.0,-28875.0
6701,203.13,235.22,966.48,-6860.0,-12460.0,-31797.5
6730,203.98,233.75,968.68,-6790.0,-12810.0,-33705.0
6759,203.62,232.78,971.0,-8207.5,-9240.0,-36732.5
6788,200.81,232.04,974.54,-7455.0,-9047.5,-39830.0
6817,194.1,229.85,978.93,-5810.0,-7840.0,-40267.5
6846,182.39,225.46,983.93,-4147.5,-5600.0,-37292.5
6875,166.9,219.84,988.93,-175.0,-2240.0,-30730.0
6904,148.96,214.72,992.59,2572.5,2502.5,-23800.0
6933,127.86,208.38,995.64,5267.5,4690.0,-14332.5
6963,106.51,201.3,996.86,8225.0,4847.5,-962.5
6992,89.3,195.44,994.79,6667.5,7210.0,10202.5
7022,75.52,190.81,992.71,3325.0,9187.5,18287.5
7051,64.17,185.81,993.2,3552.5,9922.5,26687.5
7080,57.95,181.66,994.06,5460.0,9975.0,34702.5
7109,58.32,179.46,994.06,3762.5,12617.5,36872.5
7138,61.73,178.12,993.32,4532.5,11882.5,37170.0
7167,66.86,177.27,990.52,6230.0,9362.5,37555.0
7196,73.93,177.02,985.88,3762.5,8907.5,36855.0
7225,82.72,176.9,981.86,122.5,10202.5,35717.5
7254,94.18,177.51,978.44,-507.5,8977.5,33425.0
7284,108.09,180.07,974.78,472.5,3360.0,27860.0
7313,123.46,184.95,970.39,210.0,1085.0,21735.0
7343,140.06,191.3,966.24,-2905.0,332.5,14490.0
7372,156.4,197.76,964.04,-5810.0,-420.0,6667.5
7402,171.9,204.23,963.07,-4515.0,-3342.5,-1487.5
7431,185.93,210.69,961.85,-5442.5,-7822.5,-10780.0
7460,197.03,215.94,961.73,-7350.0,-8662.5,-17132.5
7489,205.45,219.72,963.56,-8820.0,-8277.5,-22190.0
7518,211.43,222.04,966.36,-7332.5,-10062.5,-27597.5
7547,213.38,223.14,969.53,-6265.0,-11602.5,-31780.0
7576,211.91,223.14,972.58,-5022.5,-11340.0,-33740.0
7605,207.89,222.53,975.15,-4707.5,-10062.5,-35385.0
7633,200.69,221.06,978.44,-3482.5,-8907.5,-36225.0
7662,190.2,219.11,982.34,-332.5,-9100.0,-34335.0
7691,177.63,216.92,985.39,1505.0,-7700.0,-31185.0
7720,163.36,214.23,988.08,35.0,-2975.0,-26162.5
7749,146.77,209.72,994.3,-735.0,2082.5,-19425.0
7778,127.37,203.74,1002.23,7175.0,4270.0,-8452.5
7807,109.92,198.98,1005.28,8732.5,9030.0,3307.5
7836,96.38,194.96,1006.74,4900.0,16502.5,10850.0
7865,84.91,190.81,1007.96,8085.0,15802.5,16712.5
7894,74.91,186.78,1008.09,10622.5,13457.5,21472.5
7923,66.61,183.24,1006.5,12600.0,13825.0,28245.0
7952,61.49,181.29,1002.47,11532.5,13265.0,34177.5
7981,61.12,181.17,997.23,9345.0,12145.0,36907.5
8011,64.54,182.02,991.86,8032.5,9537.5,36120.0
8040,69.17,183.73,985.64,6965.0,5967.5,35262.5
8070,76.98,186.78,977.83,5145.0,4532.5,34055.0
8099,87.96,190.81,969.05,-105.0,4865.0,29890.0
8128,99.19,195.44,962.09,-4847.5,4060.0,26215.0
8157,111.75,200.69,957.46,-6072.5,1330.0,22032.5
8186,126.39,206.67,954.53,-8050.0,-192.5,15627.5
8215,141.4,213.01,954.28,-7437.5,-1802.5,8977.5
8244,155.92,219.36,954.89,-5775.0,-3955.0,2415.0
8273,169.7,225.21,954.04,-4795.0,-7490.0,-4655.0
8302,181.78,230.34,951.72,-4060.0,-13982.5,-12652.5
8331,191.17,234.61,949.4,-4882.5,-17657.5,-17832.5
8360,198.62,237.53,949.16,-10955.0,-10570.0,-19810.0
8389,204.96,239.24,952.09,-13492.5,-8470.0,-22260.0
8418,210.57,240.46,956.72,-10762.5,-10920.0,-27300.0
8447,213.5,240.83,961.6,-10430.0,-8855.0,-30222.5
8476,213.99,240.95,965.26,-8855.0,-8522.5,-31500.0
8505,213.5,241.32,967.95,-9345.0,-8995.0,-34912.5
8534,210.33,239.49,973.8,-9432.5,-4340.0,-37765.0
8563,203.37,235.95,981.73,-4042.5,-4287.5,-37117.5
8592,194.1,232.04,987.96,52.5,-4550.0,-35437.5
8622,181.17,227.41,992.96,2275.0,262.5,-30520.0
8651,163.72,222.41,996.5,6842.5,490.0,-22102.5
8680,144.94,217.16,998.2,8820.0,2065.0,-11707.5
8709,127.49,211.43,999.55,8312.5,5372.5,-2590.0
8738,111.14,205.57,1001.86,10535.0,6177.5,5582.5
8767,96.01,200.32,1004.67,12022.5,9450.0,14472.5
8796,84.18,195.93,1007.11,13510.0,11480.0,21717.5
8825,76.25,193.0,1007.48,15050.0,13125.0,27947.5
8854,72.1,191.91,1004.67,15767.5,13930.0,33232.5
8883,71.98,193.0,998.57,14822.5,13755.0,36452.5
8912,75.88,195.69,990.27,11322.5,13177.5,36522.5
8941,82.47,199.23,981.12,9607.5,9957.5,34632.5
8970,89.55,203.01,971.61,7245.0,5792.5,31745.0
9000,97.36,207.52,962.58,2520.0,6895.0,32200.0
9029,107.97,212.89,954.77,-1120.0,6615.0,31622.5
9059,122.0,219.48,947.94,-3220.0,3307.5,27685.0
9088,138.23,227.04,942.08,-5407.5,105.0,21717.5
9118,156.16,235.46,937.69,-7787.5,-1400.0,14227.5
9147,174.09,243.88,935.5,-10867.5,-1365.0,5810.0
9176,190.32,251.2,935.98,-9992.5,-3745.0,-2310.0
9205,204.35,257.18,936.59,-8697.5,-6475.0,-9065.0
9234,215.45,262.3,936.72,-11637.5,-6055.0,-15452.5
9263,223.26,265.11,938.42,-14105.0,-4200.0,-19862.5
9291,228.02,265.35,941.11,-12285.0,-5792.5,-23345.0
9320,230.82,264.25,942.69,-11252.5,-8102.5,-26950.0
9349,231.31,261.81,945.26,-14647.5,-5565.0,-29522.5
9378,229.48,258.27,951.36,-15242.5,-2607.5,-30555.0
9407,226.43,254.49,958.68,-8977.5,-7647.5,-32865.0
9436,222.28,251.32,964.04,-5915.0,-8960.0,-34895.0
9465,215.82,248.88,967.83,-6772.5,-5722.5,-34510.0
9494,207.89,245.83,972.58,-5810.0,-1557.5,-34457.5
9523,197.4,241.8,977.71,-1260.0,105.0,-33512.5
9553,182.27,237.17,981.25,1137.5,787.5,-29697.5
9582,163.11,231.56,985.27,2607.5,2047.5,-21927.5
9612,142.74,224.6,991.01,6580.0,4707.5,-10885.0
9641,123.22,217.16,996.5,8697.5,7017.5,105.0
9670,106.26,210.82,1000.28,11340.0,7507.5,8505.0
9699,91.99,205.81,1001.99,13422.5,8417.5,15487.5
9728,79.79,202.03,1002.72,14455.0,11620.0,22820.0
9757,70.76,199.35,1001.99,16975.0,12197.5,30327.5
9786,67.1,199.1,998.33,15155.0,12740.0,32742.5
9815,66.37,200.32,993.08,11987.5,11725.0,32042.5
9844,66.25,201.79,987.35,11130.0,10605.0,33810.0
9873,68.08,203.98,979.78,7525.0,11095.0,35140.0
9902,71.74,206.67,971.97,3762.5,11042.5,35525.0
9932,77.1,209.96,964.17,2520.0,8137.5,34930.0
9961,85.28,214.23,955.5,-227.5,6597.5,33757.5
9991,97.11,219.84,947.33,-5880.0,5390.0,29837.5
10020,111.26,226.31,941.6,-9310.0,4812.5,24377.5
10049,127.12,233.02,938.67,-11322.5,2660.0,18812.5
10078,145.3,240.1,938.3,-11865.0,-1172.5,9362.5
10106,162.75,246.2,940.5,-11147.5,-3045.0,-1470.0
10135,176.17,251.44,943.67,-9835.0,-5285.0,-9082.5
10164,186.66,255.59,946.72,-10027.5,-5442.5,-15085.0
10193,194.22,257.91,949.53,-9467.5,-6440.0,-20090.0
10221,198.98,258.52,951.23,-8382.5,-9502.5,-24727.5
10250,202.03,258.03,952.82,-8487.5,-11812.5,-27335.0
10278,204.35,256.57,955.75,-9030.0,-10395.0,-30555.0
10307,205.2,254.25,960.63,-9835.0,-8085.0,-32567.5
10336,203.37,251.08,966.36,-7297.5,-8400.0,-34545.0
10365,199.59,247.54,971.85,-4777.5,-8242.5,-35420.0
10394,193.13,243.76,976.98,-5337.5,-4357.5,-35052.5
10423,183.98,239.61,982.34,-1960.0,-3080.0,-34072.5
10452,171.65,234.85,985.88,1942.5,-4707.5,-32655.0
10481,154.82,229.48,988.2,2397.5,-2555.0,-27772.5
10510,134.57,223.02,991.62,3885.0,402.5,-18322.5
10540,114.07,216.43,995.28,5512.5,2712.5,-6807.5
10569,95.89,210.33,998.94,6055.0,6440.0,3937.5
10598,81.25,205.2,1001.99,8610.0,7455.0,11357.5
10627,69.05,201.42,1002.84,11130.0,7822.5,17675.0
10656,59.78,198.98,1001.38,9660.0,10010.0,23397.5
10685,54.05,197.88,998.94,9187.5,11130.0,27702.5
10714,51.73,197.76,995.52,8820.0,11060.0,29890.0
10743,51.61,198.74,991.37,7962.5,10692.5,32025.0
10772,54.05,200.32,987.47,5880.0,11690.0,33197.5
10801,57.95,201.79,983.81,4217.5,10115.0,31517.5
10830,61.61,203.13,980.64,4445.0,8715.0,32760.0
10860,66.86,205.2,976.49,4812.5,8155.0,33862.5
10889,74.42,207.89,970.51,2275.0,7560.0,32375.0
10919,82.23,210.45,964.9,-1242.5,6492.5,29190.0
10948,91.26,213.13,959.65,-1417.5,3570.0,27790.0
10978,104.68,217.4,954.53,-4007.5,805.0,23082.5
11007,121.15,223.02,950.5,-7752.5,875.0,15242.5
11037,136.64,228.38,949.4,-10220.0,770.0,7402.5
11066,151.16,232.65,950.14,-9065.0,-1907.5,-227.5
11095,163.36,236.07,950.38,-8802.5,-4042.5,-7000.0
11124,173.0,238.51,950.87,-10255.0,-5530.0,-12040.0
11152,180.68,239.36,952.09,-10552.5,-7157.5,-16537.5
11181,185.44,238.63,953.31,-10027.5,-10430.0,-19705.0
11209,187.76,236.8,955.63,-10115.0,-12390.0,-21910.0
11238,188.86,233.87,960.63,-11865.0,-8785.0,-24290.0
11266,188.37,230.34,966.61,-10517.5,-8295.0,-25480.0
11295,187.03,226.68,973.32,-8032.5,-7997.5,-26092.5
11324,184.83,223.99,978.68,-7052.5,87.5,-24517.5
11353,182.76,222.41,982.22,-6685.0,-5530.0,-27912.5
11382,179.83,220.7,986.74,-5442.5,-4725.0,-29522.5
11411,175.31,219.23,990.88,-2485.0,-3097.5,-29522.5
11440,169.95,218.38,993.32,-822.5,-2187.5,-29470.0
11469,162.75,217.04,995.64,822.5,-612.5,-29592.5
11498,152.5,214.35,998.08,4322.5,-1452.5,-27195.0
11526,140.42,211.43,1000.03,5495.0,122.5,-22067.5
11555,127.12,208.38,1002.84,5005.0,3955.0,-16712.5
11584,112.0,204.23,1008.21,7157.5,6317.5,-10937.5
11613,95.65,198.98,1013.09,12512.5,6422.5,-2415.0
11642,79.79,195.08,1013.82,15085.0,6720.0,5897.5
11671,65.88,192.64,1010.53,14560.0,8662.5,13020.0
11700,54.78,191.05,1006.38,11130.0,11200.0,19022.5
11729,46.97,189.83,1003.57,10360.0,12232.5,24080.0
11758,41.72,189.34,1001.13,9607.5,12005.0,26477.5
11787,38.92,190.08,997.72,10535.0,11182.5,29837.5
11816,39.41,192.03,993.08,8435.0,12512.5,31255.0
11845,41.72,194.71,988.2,6300.0,12372.5,30922.5
11874,43.92,197.27,982.71,5757.5,9940.0,30817.5
11904,47.09,199.59,976.37,3517.5,9485.0,31675.0
11933,52.34,202.4,970.14,-490.0,8925.0,30782.5
11963,59.78,205.94,965.02,-1977.5,7175.0,28805.0
11992,68.69,209.84,959.9,-3010.0,5180.0,26635.0
12021,80.28,214.96,954.41,-5425.0,4147.5,23362.5
12050,94.18,221.06,950.01,-9345.0,3342.5,16275.0
12079,107.36,226.8,948.31,-10482.5,1207.5,9870.0
12108,120.05,231.92,948.67,-10202.5,-787.5,4095.0
12137,132.37,236.07,949.65,-9975.0,-3202.5,-2905.0
12166,142.37,238.39,949.89,-8942.5,-7052.5,-8487.5
12195,150.3,239.49,948.67,-8750.0,-10115.0,-12162.5
12224,157.01,239.97,948.43,-12757.5,-9397.5,-16502.5
12253,162.02,239.12,950.87,-13335.0,-9677.5,-19652.5
12282,165.55,237.05,954.04,-12425.0,-11602.5,-22365.0
12311,167.87,234.97,957.94,-12302.5,-11952.5,-25445.0
12340,168.73,232.04,963.56,-11340.0,-12442.5,-28542.5
12369,168.36,228.14,970.14,-6580.0,-16082.5,-30905.0
12398,167.75,224.24,976.24,-3832.5,-15347.5,-31815.0
12427,165.92,220.33,982.1,-6545.0,-4130.0,-30677.5
12455,163.24,216.43,988.2,-6615.0,-3762.5,-29540.0
12484,160.8,213.74,992.96,-2835.0,-5442.5,-30817.5
12512,156.65,211.79,995.64,-1382.5,-4585.0,-31255.0
12541,149.08,209.6,998.08,1085.0,-3955.0,-29697.5
12570,138.1,207.4,999.79,4095.0,-4637.5,-25567.5
12599,125.78,205.2,1001.13,3535.0,-1925.0,-20580.0
12628,111.51,201.54,1005.4,2922.5,2660.0,-14875.0
12657,95.28,196.18,1012.23,7647.5,4340.0,-6685.0
12686,79.3,191.3,1016.99,12827.5,4620.0,2520.0
12715,65.15,187.15,1017.97,14892.5,6562.5,10605.0
12744,53.44,183.61,1016.26,15382.5,9100.0,18970.0
12773,45.14,180.8,1012.48,12757.5,11777.5,25060.0
12802,38.92,178.12,1009.43,10447.5,12582.5,29067.5
12831,35.14,175.92,1007.6,12862.5,12005.0,35577.5
12860,36.11,175.68,1004.06,12495.0,12005.0,39147.5
12889,40.02,176.66,999.67,10885.0,11497.5,39357.5
12918,45.02,177.75,994.42,11865.0,8575.0,40057.5
12947,51.73,179.71,987.71,11865.0,7262.5,41877.5
12976,62.46,183.24,979.78,8470.0,7700.0,41002.5
13005,76.13,188.12,971.24,1732.5,7787.5,35647.5
13034,89.91,193.0,964.53,-3605.0,7770.0,30625.0
13063,104.07,198.37,959.9,-4392.5,6282.5,27825.0
13092,121.51,205.2,955.87,-5950.0,3202.5,21735.0
13121,139.81,212.65,952.45,-7525.0,1452.5,13090.0
13150,155.92,220.21,950.62,-8347.5,-525.0,5915.0
13179,170.92,227.29,950.62,-8085.0,-2240.0,-1137.5
13208,184.71,232.65,952.33,-9100.0,-1242.5,-8505.0
13237,196.42,236.44,953.06,-7315.0,-3220.0,-14157.5
13266,206.67,239.61,950.38,-8067.5,-6195.0,-19932.5
13295,215.94,241.68,947.82,-12390.0,-5547.5,-25550.0
13324,222.77,241.32,948.43,-14717.5,-5320.0,-30030.0
13353,227.65,239.36,951.72,-12705.0,-7560.0,-33617.5
13381,229.85,235.83,956.48,-11392.5,-9047.5,-38097.5
13410,227.9,230.95,960.63,-7682.5,-14472.5,-41352.5
13438,222.89,225.58,963.92,-6545.0,-18567.5,-42157.5
13467,216.79,220.94,967.95,-8452.5,-12285.0,-39550.0
13495,210.82,217.4,972.83,-9275.0,-7297.5,-37607.5
13524,204.23,214.35,977.83,-4917.5,-8645.0,-38447.5
13553,193.74,211.18,982.1,-2485.0,-6352.5,-37450.0
13582,179.22,207.4,986.13,-2625.0,-2082.5,-33250.0
13611,162.38,203.13,991.37,-682.5,87.5,-27142.5
13640,144.08,198.37,998.2,2607.5,2625.0,-20510.0
13669,122.98,192.76,1005.52,7105.0,5390.0,-9397.5
13698,101.99,187.64,1010.4,10727.5,7122.5,3605.0
13727,85.16,184.1,1012.23,11690.0,9240.0,12127.5
13756,71.61,181.29,1012.6,12425.0,11462.5,19722.5
13785,61.24,179.34,1011.87,13510.0,12862.5,26687.5
13814,54.78,178.61,1009.18,12950.0,13772.5,31097.5
13843,51.61,178.61,1005.77,11882.5,14682.5,34247.5
13871,50.39,178.97,1001.5,11410.0,13685.0,36750.0
13900,51.85,179.58,995.89,11970.0,10237.5,38482.5
13929,56.61,181.78,988.93,10412.5,7437.5,36575.0
13958,61.49,184.46,982.1,7385.0,7192.5,35052.5
13987,66.12,187.51,976.0,5005.0,8505.0,37030.0
14016,73.44,191.54,969.66,2975.0,7245.0,36715.0
14045,82.72,196.18,964.17,-192.5,6667.5,34492.5
14074,92.72,200.93,960.51,-1085.0,5355.0,32882.5
14103,104.68,206.42,956.6,-857.5,2502.5,30660.0
14132,121.27,213.26,953.06,-3832.5,1330.0,26110.0
14161,143.23,222.04,951.84,-5407.5,-52.5,19092.5
14190,167.87,232.41,951.84,-5512.5,-2117.5,6755.0
14219,189.1,241.8,952.09,-5792.5,-3237.5,-5355.0
14248,204.84,249.25,952.21,-6300.0,-3815.0,-13195.0
14277,216.79,254.37,952.45,-8050.0,-2695.0,-19775.0
14305,225.21,256.81,953.55,-8225.0,-2905.0,-25392.5
14334,230.46,257.18,954.28,-6247.5,-6212.5,-29995.0
14362,233.39,256.69,954.77,-7297.5,-5950.0,-33267.5
14391,234.12,255.1,956.48,-7997.5,-5547.5,-36242.5
14419,233.39,252.17,958.43,-6475.0,-5845.0,-38010.0
14448,231.07,249.37,959.77,-5792.5,-7612.5,-40407.5
14477,226.92,246.32,961.12,-5827.5,-8627.5,-42175.0
14506,220.82,242.54,963.43,-6790.0,-6667.5,-42875.0
14535,212.77,238.02,966.24,-5127.5,-5915.0,-42175.0
14564,203.13,233.51,968.68,-3360.0,-7070.0,-42262.5
14593,191.3,228.51,970.39,-3342.5,-5460.0,-41475.0
14622,175.31,223.5,971.49,-2152.5,-3815.0,-37642.5
14651,156.89,218.5,971.97,-3115.0,-1995.0,-32060.0
14680,136.03,212.52,972.83,-3850.0,402.5,-25917.5
14709,111.63,205.33,974.29,-2677.5,350.0,-16852.5
14739,85.16,197.52,977.1,-2432.5,2782.5,-2205.0
14768,62.46,190.81,981.12,-1277.5,5355.0,12950.0
14797,46.12,185.81,985.88,962.5,6335.0,21437.5
14826,34.28,183.0,990.15,4095.0,6282.5,28157.5
14855,26.84,181.78,993.2,5740.0,7472.5,33740.0
14884,23.55,181.66,994.54,7105.0,7420.0,36540.0
14913,22.33,181.9,994.3,8067.5,6790.0,38237.5
14942,21.96,182.02,992.59,7735.0,6982.5,41090.0
14971,24.4,182.51,990.4,6685.0,6125.0,42997.5
15000,30.26,183.24,988.2,6527.5,4812.5,41790.0
15029,36.97,184.71,985.64,6877.5,3465.0,40950.0
15059,45.26,187.39,981.61,7577.5,752.5,39917.5
15088,56.73,190.93,976.12,7507.5,-3622.5,35315.0
15118,69.3,194.71,971.0,5565.0,-1750.0,31640.0
15147,79.42,197.52,967.7,2712.5,822.5,31850.0
15177,91.13,200.81,964.9,2625.0,-857.5,31552.5
15206,108.7,205.94,961.97,-980.0,-875.0,25952.5
15235,129.81,212.52,961.24,-3115.0,-210.0,17850.0
15264,152.74,220.09,962.46,-1347.5,-1820.0,8557.5
15293,176.41,228.38,962.46,-140.0,-1977.5,-2100.0
15322,196.42,236.19,961.48,-2887.5,-805.0,-12740.0
15351,211.3,241.8,961.24,-3465.0,332.5,-19740.0
15380,223.02,245.34,961.12,-2782.5,-2205.0,-26495.0
15409,231.07,246.93,960.38,-2607.5,-3622.5,-31465.0
15438,235.46,247.05,958.68,-3237.5,-4672.5,-34650.0
15467,237.9,246.93,956.6,-4637.5,-5442.5,-37607.5
15496,238.63,246.32,955.63,-5862.5,-6545.0,-40915.0
15525,236.92,244.37,955.75,-4795.0,-7752.5,-42297.5
15554,233.14,242.05,955.5,-5337.5,-7892.5,-43942.5
15583,226.68,239.0,955.75,-5722.5,-7192.5,-44975.0
15612,217.65,235.22,956.48,-5897.5,-6177.5,-43750.0
15641,206.18,231.56,957.33,-7647.5,-4357.5,-42490.0
15669,190.08,226.55,959.65,-6650.0,-3832.5,-39340.0
15698,168.97,220.33,962.82,-5285.0,-3255.0,-32095.0
15726,144.33,213.01,967.95,-4830.0,-367.5,-23555.0
15755,116.88,204.72,975.02,-280.0,1067.5,-10657.5
15784,90.04,197.4,981.0,3552.5,1697.5,5407.5
15813,69.54,192.88,985.03,5687.5,3867.5,17692.5
15842,55.88,190.69,987.22,5722.5,5670.0,23782.5
15871,45.87,189.71,989.05,5757.5,7455.0,29750.0
15900,39.65,189.34,989.66,7595.0,8347.5,35472.5
15929,36.48,189.47,988.2,6545.0,9187.5,37012.5
15958,34.16,188.73,987.83,7542.5,7525.0,41510.0
15988,36.36,188.86,986.98,10342.5,7472.5,46462.5
16017,43.92,190.69,983.56,6107.5,9712.5,43942.5
16047,51.85,193.37,979.54,4462.5,7997.5,41510.0
16076,60.51,197.15,974.9,3692.5,6562.5,40285.0
16106,72.22,201.79,969.9,87.5,8207.5,35752.5
16135,84.06,205.94,966.24,-910.0,6807.5,30520.0
16164,95.65,210.57,963.31,2222.5,1382.5,27790.0
16193,111.02,216.67,960.14,1015.0,-17.5,22750.0
16222,128.95,223.75,959.41,-4620.0,4112.5,16135.0
16251,148.6,231.31,962.82,-4095.0,4060.0,8890.0
16280,168.12,239.73,965.75,1242.5,-945.0,-1470.0
16309,184.83,248.03,965.02,857.5,-2730.0,-10272.5
16338,197.88,254.86,963.07,-1750.0,-2940.0,-17570.0
16367,208.62,259.37,962.34,-2380.0,-3622.5,-23905.0
16396,216.31,261.81,961.85,-2082.5,-5250.0,-30135.0
16425,219.97,262.91,960.99,-1837.5,-6912.5,-34160.0
16454,220.94,262.54,959.9,-2642.5,-7472.5,-36977.5
16483,219.84,260.96,958.55,-4095.0,-7875.0,-40005.0
16512,216.06,258.15,955.87,-5442.5,-9327.5,-42682.5
16541,209.72,254.25,953.31,-8750.0,-8907.5,-44502.5
16570,201.06,249.37,952.82,-9852.5,-5705.0,-43242.5
16598,191.05,244.0,953.31,-11882.5,-2467.5,-41282.5
16627,177.27,237.66,955.38,-13615.0,-665.0,-38622.5
16655,157.62,229.85,961.36,-10045.0,-4060.0,-32567.5
16684,135.91,221.19,969.17,-4007.5,-4025.0,-23117.5
16712,112.73,212.52,976.12,-2660.0,717.5,-13580.0
16741,87.6,204.11,982.1,1960.0,682.5,-1085.0
16770,65.15,197.4,985.64,4707.5,980.0,12407.5
16800,49.41,192.76,987.35,4637.5,3395.0,21437.5
16829,39.28,189.95,988.32,5127.5,4847.5,26530.0
16858,32.7,188.49,989.18,6090.0,5547.5,30782.5
16887,29.04,187.51,989.18,7210.0,6737.5,36032.5
16917,28.91,186.9,988.32,5582.5,7472.5,36680.0
16946,30.26,186.42,986.98,6160.0,4900.0,36662.5
16976,32.57,186.54,984.66,6160.0,4235.0,38447.5
17005,38.19,187.76,980.76,3307.5,5617.5,38972.5
17035,46.36,189.59,976.61,-402.5,6895.0,35437.5
17064,53.68,191.05,973.93,-420.0,5022.5,32882.5
17093,60.63,192.27,972.1,577.5,3290.0,33197.5
17122,69.3,194.47,969.9,-1260.0,3727.5,32357.5
17151,80.76,197.52,968.19,-3202.5,2520.0,30082.5
17180,97.11,201.79,968.44,-4637.5,-315.0,25567.5
17209,120.17,208.01,971.24,-4882.5,-2345.0,16747.5
17238,145.55,216.31,975.39,-4077.5,297.5,3360.0
17267,167.14,224.24,978.56,-892.5,-140.0,-7857.5
17296,185.93,230.58,978.93,140.0,-1260.0,-17815.0
17325,201.79,234.73,977.46,-840.0,-2957.5,-28490.0
17354,211.91,235.46,976.0,-1190.0,-4567.5,-35752.5
17383,217.4,234.24,974.54,-1505.0,-5232.5,-40005.0
17412,219.84,231.8,973.07,-2852.5,-5932.5,-44100.0
17441,218.87,227.77,972.71,-2747.5,-6370.0,-47057.5
17470,214.23,222.77,972.34,-2415.0,-7087.5,-48090.0
17499,205.69,217.16,971.0,-3027.5,-6597.5,-47705.0
17528,193.37,210.82,969.29,-4182.5,-6265.0,-45010.0
17557,177.88,204.23,967.95,-4830.0,-6160.0,-40652.5
17585,160.67,197.52,965.87,-6947.5,-8505.0,-35805.0
17614,143.35,191.17,965.63,-11970.0,-6387.5,-32077.5
17642,121.15,183.0,971.36,-13002.5,2485.0,-24797.5
17671,94.43,172.75,981.12,-6370.0,3237.5,-10430.0
17700,69.78,163.36,990.15,1540.0,577.5,3815.0
17730,50.26,156.65,996.5,4637.5,2835.0,14507.5
17759,35.38,152.26,1001.01,7017.5,4480.0,22750.0
17788,24.4,149.57,1003.57,9450.0,4812.5,31640.0
17817,19.03,148.6,1003.33,9187.5,6597.5,36907.5
17846,18.18,148.84,1001.5,8225.0,7875.0,38167.5
17875,18.06,148.96,999.42,8505.0,7892.5,40757.5
17905,20.01,149.57,996.25,8575.0,7472.5,44100.0
17934,26.11,151.52,992.59,4900.0,7245.0,42647.5
17964,33.92,154.21,989.54,4742.5,5845.0,41072.5
17993,42.09,157.14,985.39,3955.0,4392.5,40075.0
18023,51.24,160.31,981.0,70.0,5372.5,36855.0
18052,60.15,163.6,977.22,-1977.5,3867.5,35157.5
18081,71.0,167.63,974.17,-2170.0,-437.5,35472.5
18110,90.04,174.46,971.85,-1645.0,-3395.0,31132.5
18139,117.24,183.98,972.46,-4917.5,-2240.0,16922.5
18168,144.45,193.49,977.95,-3832.5,-2642.5,1435.0
18197,167.63,202.15,983.44,3517.5,-5075.0,-9275.0
18226,187.64,210.08,984.42,3587.5,-4882.5,-20090.0
18255,202.4,215.82,982.83,2082.5,-4935.0,-28980.0
18284,212.28,218.87,979.9,1102.5,-6195.0,-35665.0
18313,218.87,219.11,976.0,-1050.0,-5600.0,-41772.5
18342,220.94,217.53,972.1,-2817.5,-6475.0,-46007.5
18371,218.87,214.6,968.56,-3220.0,-8715.0,-47722.5
18400,214.72,210.69,965.51,-5407.5,-8767.5,-48667.5
18429,207.89,205.69,963.92,-7350.0,-7857.5,-47705.0
18458,198.37,200.2,963.43,-10027.5,-5775.0,-46270.0
18487,185.44,193.74,964.53,-11532.5,-5740.0,-45745.0
18515,165.92,185.81,968.07,-8872.5,-5390.0,-41002.5
18544,140.18,177.39,973.19,-7402.5,-1925.0,-30432.5
18572,110.65,168.12,979.78,-6545.0,3500.0,-17815.0
18601,79.67,158.48,988.2,-2975.0,5162.5,-1855.0
18630,53.31,150.55,996.86,3325.0,4777.5,15470.0
18659,34.77,145.3,1003.33,7997.5,7630.0,28105.0
18688,23.91,142.98,1006.13,11235.0,6265.0,36540.0
18717,20.74,143.47,1006.13,12267.5,5215.0,39952.5
18746,21.96,145.18,1004.06,10675.0,6597.5,38885.0
18775,23.06,147.01,1001.38,11235.0,5985.0,40897.5
18804,25.5,149.33,997.23,11742.5,4725.0,45045.0
18833,32.7,153.35,990.4,9205.0,3167.5,45027.5
18862,43.07,158.23,982.59,5442.5,3342.5,40862.5
18892,52.22,162.26,975.27,1907.5,2590.0,40092.5
18921,62.46,166.41,967.95,-280.0,-52.5,40460.0
18951,78.81,172.02,961.12,-5442.5,525.0,37677.5
18980,101.63,179.58,960.63,-11655.0,7227.5,29365.0
19009,128.1,188.12,966.97,-9362.5,8540.0,16205.0
19038,153.35,197.4,974.54,-752.5,-3010.0,875.0
19067,174.34,206.79,979.42,2380.0,-4585.0,-11025.0
19096,191.17,214.6,980.51,1015.0,-1732.5,-18777.5
19125,205.33,219.97,978.44,367.5,-3097.5,-27580.0
19154,215.45,222.77,974.17,-1137.5,-4322.5,-35175.0
19183,221.06,223.75,968.8,-5145.0,-5180.0,-40197.5
19212,223.75,222.53,965.51,-7350.0,-6825.0,-44555.0
19241,223.75,219.6,964.41,-6387.5,-8610.0,-48982.5
19270,218.38,215.45,964.53,-4480.0,-9695.0,-50242.5
19299,207.64,212.28,964.78,-2257.5,-8732.5,-45307.5
19328,195.81,209.84,964.65,-5740.0,-6580.0,-42490.0
19357,182.02,204.96,966.85,-8925.0,-1750.0,-41737.5
19386,161.04,195.93,972.46,-7997.5,70.0,-37677.5
19415,131.76,183.73,979.78,-2502.5,-367.5,-24640.0
19444,98.21,170.8,986.13,577.5,1715.0,-4830.0
19473,67.34,159.7,990.76,4410.0,1557.5,15137.5
19503,45.63,151.77,993.08,6877.5,962.5,30257.5
19532,34.77,147.74,994.42,6440.0,4672.5,37205.0
19561,31.11,146.64,995.15,7245.0,5005.0,38430.0
19590,29.52,146.64,995.15,8207.5,4690.0,40652.5
19619,30.5,147.62,994.06,8750.0,5197.5,44467.5
19648,35.38,149.21,991.13,6807.5,4900.0,44170.0
19677,42.7,151.77,987.35,5250.0,4375.0,43557.5
19706,52.95,155.79,983.08,4970.0,2992.5,43190.0
19735,66.37,160.31,977.83,2765.0,4042.5,39742.5
19764,78.32,164.09,973.8,-945.0,4777.5,34755.0
19793,88.82,167.75,972.1,-857.5,3412.5,34002.5
19822,104.55,173.24,972.22,-1295.0,3097.5,30730.0
19851,127.37,181.05,974.9,-1907.5,3517.5,21665.0
19880,151.65,189.83,979.42,1102.5,2747.5,10255.0
19909,175.19,199.1,981.73,5810.0,-507.5,525.0
19939,198.62,208.62,979.9,5215.0,-1890.0,-12285.0
19968,217.77,216.67,975.76,2712.5,-3710.0,-24115.0
19997,230.82,221.92,971.24,-665.0,-3255.0,-32077.5
20026,238.27,224.36,966.97,-1960.0,-4865.0,-37520.0
20055,241.56,225.09,963.31,-3430.0,-6790.0,-41160.0
20084,242.29,224.36,961.73,-6212.5,-5337.5,-43575.0
20112,240.71,222.04,962.95,-6650.0,-5110.0,-45797.5
20141,235.95,218.14,966.0,-3517.5,-8382.5,-48807.5
20169,226.43,213.26,968.68,-717.5,-10430.0,-47530.0
20198,213.26,208.62,968.44,-1540.0,-7507.5,-42980.0
20227,197.64,204.35,966.12,-5530.0,-3657.5,-37835.0
20256,178.61,199.59,965.14,-7227.5,-1610.0,-33512.5
20285,154.82,194.59,965.75,-5495.0,-2030.0,-25287.5
20314,129.08,189.22,967.7,-6475.0,-717.5,-14280.0
20343,104.43,183.37,972.34,-5285.0,2012.5,-2327.5
20372,82.96,177.75,978.68,-3185.0,3867.5,7122.5
20401,64.78,173.48,985.39,927.5,3745.0,15382.5
20431,51.48,171.04,989.91,4672.5,3762.5,22837.5
20460,42.21,169.46,992.35,5547.5,5285.0,27510.0
20490,34.04,167.51,993.32,6947.5,5670.0,32357.5
20519,28.79,166.65,992.71,8260.0,4235.0,39165.0
20549,29.77,167.63,990.4,8137.5,5617.5,43470.0
20578,34.65,169.46,986.37,3657.5,7910.0,42857.5
20607,40.75,171.17,983.2,2240.0,6475.0,42595.0
20636,47.58,172.39,980.27,2870.0,3972.5,43295.0
20665,56.61,173.97,977.22,577.5,4060.0,43610.0
20694,70.03,176.66,974.78,-1260.0,4322.5,40687.5
20723,88.82,181.54,973.56,-2152.5,2030.0,35822.5
20752,116.63,189.83,974.54,-717.5,-2817.5,26162.5
20781,149.82,199.84,976.0,1592.5,-3132.5,7000.0
20810,177.39,209.47,976.0,2135.0,-6195.0,-9520.0
20839,198.98,217.65,974.9,2310.0,-8032.5,-19740.0
20868,216.31,223.75,972.58,-1242.5,-4847.5,-29190.0
20897,227.53,227.16,970.14,-2695.0,-5390.0,-35910.0
20926,234.24,228.63,967.46,-1260.0,-9590.0,-39987.5
20955,237.29,228.75,964.53,-3535.0,-11042.5,-44152.5
20984,236.8,227.41,963.07,-5722.5,-9730.0,-46147.5
21013,232.17,224.85,962.46,-4882.5,-10570.0,-47915.0
21042,222.89,221.06,961.24,-4935.0,-11655.0,-46812.5
21071,210.69,216.06,960.63,-8015.0,-7210.0,-42280.0
21099,195.08,209.11,961.97,-10255.0,-1050.0,-39182.5
21128,173.12,200.08,965.63,-8802.5,1155.0,-33197.5
21157,143.84,189.59,971.12,-7822.5,3675.0,-22750.0
21186,110.41,177.39,979.54,-4917.5,6002.5,-5792.5
21215,79.91,165.43,987.59,1137.5,5600.0,12232.5
21244,55.88,156.77,992.35,4095.0,6877.5,26617.5
21273,39.77,152.01,995.03,5775.0,8120.0,40302.5
21302,34.89,150.79,995.28,7577.5,8137.5,48107.5
21331,37.58,151.65,993.2,3990.0,10342.5,45482.5
21360,40.75,152.62,992.47,2065.0,10640.0,45955.0
21389,46.6,154.33,992.23,6335.0,7770.0,50032.5
21419,57.95,157.38,989.54,5250.0,6580.0,46375.0
21448,69.54,161.04,986.74,1662.5,6737.5,42087.5
21478,81.86,165.19,985.52,2170.0,3517.5,40775.0
21507,98.58,170.31,984.54,2327.5,2712.5,34335.0
21537,117.0,176.66,983.56,2030.0,2695.0,26477.5
21566,136.88,184.46,983.32,2677.5,997.5,18707.5
21595,159.58,193.98,982.34,3920.0,-367.5,7245.0
21624,180.8,203.5,980.03,2240.0,-542.5,-4742.5
21653,197.52,211.3,977.95,525.0,-892.5,-14087.5
21682,209.6,216.92,976.24,1085.0,-4077.5,-22120.0
21711,217.65,220.45,974.29,0.0,-5320.0,-28000.0
21740,221.92,222.04,972.95,-595.0,-6002.5,-32007.5
21769,222.77,222.53,971.36,175.0,-8522.5,-34142.5
21798,222.28,223.02,968.56,-840.0,-9975.0,-36050.0
21827,220.21,222.53,966.0,-3605.0,-9047.5,-38622.5
21856,215.7,221.19,964.29,-3622.5,-10097.5,-39130.0
21885,210.57,220.21,962.58,-3202.5,-10867.5,-39200.0
21914,204.84,219.6,960.51,-5775.0,-9012.5,-40757.5
21943,196.42,217.89,960.26,-8277.5,-6650.0,-42350.0
21972,183.37,213.74,961.85,-8995.0,-3797.5,-39970.0
22001,164.09,207.16,966.0,-10832.5,0.0,-33530.0
22031,139.69,198.98,972.71,-7647.5,-385.0,-24185.0
22060,113.09,190.2,980.64,-1715.0,-3885.0,-14192.5
22088,86.38,182.27,987.59,4112.5,-2065.0,2030.0
22117,65.03,176.9,991.25,3465.0,3307.5,17727.5
22146,52.22,174.22,993.2,2817.5,7367.5,26110.0
22175,45.63,173.24,995.03,4567.5,8487.5,31290.0
22204,43.68,173.73,996.25,6807.5,9502.5,34370.0
22233,44.9,175.68,995.64,7542.5,7577.5,34545.0
22262,48.43,178.49,993.69,7420.0,4847.5,33845.0
22291,53.92,181.66,989.91,6562.5,5372.5,32690.0
22320,59.29,184.71,984.91,1470.0,7385.0,29925.0
22349,62.95,186.66,981.25,297.5,7210.0,30415.0
22378,67.34,188.37,977.95,1120.0,5232.5,31465.0
22408,73.44,190.32,974.29,-1452.5,5127.5,30415.0
22437,81.01,192.88,972.1,-2030.0,4200.0,30520.0
22467,91.5,196.54,970.75,-2310.0,3430.0,29330.0
22496,106.87,202.03,969.9,-2660.0,2327.5,24517.5
22525,127.37,209.47,969.78,-1365.0,-332.5,15925.0
22554,150.18,217.89,970.88,-2555.0,-1190.0,2117.5
22583,169.46,225.21,973.19,-927.5,-2590.0,-9817.5
22612,184.22,231.07,973.56,70.0,-5127.5,-18462.5
22641,194.96,235.46,971.97,-1942.5,-5162.5,-25707.5
22670,201.67,237.53,971.12,-3395.0,-5687.5,-30730.0
22698,205.69,237.53,971.24,-2082.5,-7910.0,-34615.0
22727,207.52,236.56,971.36,-665.0,-10045.0,-37765.0
22756,207.4,234.97,970.39,-1032.5,-10465.0,-39567.5
22785,205.2,232.53,969.41,-3062.5,-9275.0,-40512.5
22814,201.18,229.36,969.29,-3150.0,-9222.5,-41317.5
22843,194.96,225.21,969.41,-4497.5,-7805.0,-42245.0
22872,184.71,219.72,969.9,-5775.0,-5757.5,-41055.0
22901,169.09,212.65,970.51,-6492.5,-3990.0,-38150.0
22930,148.6,204.59,970.27,-6212.5,-3412.5,-32532.5
22959,123.95,195.81,970.63,-6440.0,-332.5,-24115.0
22988,97.36,184.83,974.66,-7315.0,1697.5,-11340.0
23017,71.37,173.12,982.71,-5215.0,4445.0,4462.5
23046,50.26,164.7,990.15,87.5,4602.5,20037.5
23076,37.45,160.31,994.67,2257.5,6457.5,30047.5
23105,30.74,157.38,997.23,2380.0,10027.5,35437.5
23134,25.86,153.23,998.81,2992.5,9992.5,39252.5
23163,22.69,148.6,999.67,3902.5,9800.0,45762.5
23192,25.25,145.67,998.94,4550.0,9152.5,50277.5
23221,32.45,144.94,996.25,2310.0,8487.5,47512.5
23250,40.26,145.42,994.67,1837.5,7857.5,49070.0
23279,51.0,147.38,992.84,4357.5,5407.5,50977.5
23308,66.86,151.4,988.81,1855.0,3167.5,45587.5
23337,85.89,157.14,985.64,-1697.5,2135.0,36627.5
23366,105.65,164.33,984.78,-2975.0,1452.5,26932.5
23395,126.88,172.63,985.88,-1347.5,-175.0,17447.5
23424,149.82,181.78,987.47,52.5,-1925.0,5162.5
23454,171.04,190.44,988.81,-70.0,-1767.5,-7350.0
23483,187.51,197.03,989.91,1277.5,-3307.5,-17377.5
23512,199.71,201.18,989.54,2012.5,-4917.5,-24955.0
23541,208.38,203.25,987.71,1277.5,-5810.0,-31150.0
23570,213.74,203.86,985.27,490.0,-7507.5,-36137.5
23599,216.67,203.74,983.56,-752.5,-8242.5,-40390.0
23627,217.28,202.76,982.34,-840.0,-9222.5,-43995.0
23656,214.72,200.45,981.73,-2170.0,-8557.5,-46777.5
23684,208.38,196.91,982.83,-2082.5,-7997.5,-46882.5
23713,200.08,192.88,983.69,245.0,-9432.5,-45675.0
23742,191.54,189.22,982.47,-2100.0,-7472.5,-46112.5
23771,179.58,184.22,982.1,-4130.0,-4970.0,-46182.5
23800,161.04,176.9,983.2,-1522.5,-3902.5,-39357.5
23829,138.23,170.07,981.73,-2047.5,-2467.5,-30537.5
23858,112.48,163.48,979.05,-7822.5,1365.0,-22330.0
23887,83.81,154.82,980.88,-11585.0,6317.5,-6982.5
23916,57.1,145.91,987.47,-7577.5,6895.0,12285.0
23945,39.04,139.57,993.69,-822.5,4025.0,22347.5
23974,25.99,135.3,996.74,437.5,6107.5,28017.5
24004,15.37,132.98,997.84,1505.0,6422.5,37607.5
24033,12.2,133.1,997.84,3342.5,6720.0,43925.0
24063,14.88,135.18,996.25,4602.5,2572.5,43172.5
24092,19.89,138.59,994.67,7367.5,-2467.5,44170.0
24121,29.04,141.76,994.06,4445.0,5495.0,46375.0
24150,40.99,144.69,993.81,1067.5,6755.0,41895.0
24179,52.22,147.38,994.54,3780.0,612.5,36172.5
24208,61.0,149.94,994.3,8347.5,-840.0,36120.0
24237,71.25,153.35,990.64,6492.5,35.0,34352.5
24267,83.57,157.14,986.74,1382.5,822.5,28385.0
24296,95.65,160.92,985.52,1487.5,-140.0,24710.0
24325,111.87,167.51,983.44,3097.5,-2765.0,21682.5
24354,138.35,177.63,980.27,-2450.0,-4217.5,6300.0
24383,163.85,187.39,979.9,-4375.0,-1925.0,-10132.5
24412,182.88,194.71,980.51,-1487.5,-2782.5,-17955.0
24441,198.13,199.59,980.03,-2117.5,-4130.0,-27825.0
24470,206.91,201.06,980.51,-1190.0,-5582.5,-33862.5
24499,209.96,200.32,981.12,-630.0,-6055.0,-35630.0
24528,209.6,199.35,980.51,-1085.0,-7000.0,-35752.5
24557,207.4,198.86,978.44,-3937.5,-6912.5,-35997.5
24586,204.47,198.25,976.49,-9520.0,-2572.5,-37170.0
24614,200.32,196.42,975.51,-11777.5,420.0,-38797.5
24643,193.74,192.52,975.51,-10692.5,-1260.0,-42035.0
24671,182.88,186.54,976.0,-7910.0,-3500.0,-42840.0
24700,165.68,178.97,977.34,-7227.5,-2642.5,-38395.0
24729,141.76,169.58,980.64,-5145.0,-735.0,-28472.5
24758,112.85,159.33,984.54,-1890.0,-420.0,-12932.5
24787,85.4,150.3,988.2,-17.5,805.0,5582.5
24817,65.88,143.35,991.62,-315.0,4795.0,18147.5
24846,54.17,139.32,994.79,3517.5,4165.0,24185.0
24876,46.73,138.1,996.98,7490.0,682.5,27457.5
24905,41.11,137.49,999.3,9905.0,2660.0,34090.0
24935,39.53,136.88,1000.52,11567.5,8960.0,43330.0
24964,45.02,138.71,998.08,8680.0,4060.0,39322.5
24994,51.85,142.01,995.28,7140.0,-700.0,31710.0
25023,56.85,145.06,992.1,6335.0,-2607.5,32987.5
25053,63.93,148.6,988.57,5197.5,-1855.0,32375.0
25082,72.22,151.89,985.03,2275.0,2835.0,30922.5
25111,80.28,155.06,981.37,962.5,3167.5,29837.5
25140,90.4,158.48,978.68,2327.5,3850.0,30135.0
25169,106.02,162.87,976.12,-1172.5,7420.0,23957.5
25198,123.46,168.24,974.54,-4777.5,9065.0,14297.5
25227,139.93,174.22,975.15,-4235.0,4935.0,6265.0
25256,157.99,180.56,976.12,-2975.0,1242.5,-2397.5
25285,174.58,186.9,976.24,-3972.5,-997.5,-13877.5
25314,185.93,191.3,976.37,-4760.0,-1400.0,-20947.5
25343,193.86,193.25,977.34,-4620.0,-1557.5,-26145.0
25372,198.98,193.61,978.68,-2432.5,-3920.0,-30730.0
25401,200.32,192.76,979.66,-2765.0,-5302.5,-34352.5
25430,198.37,190.93,981.49,-2327.5,-4865.0,-34580.0
25459,195.32,188.73,982.83,-735.0,-5757.5,-34790.0
25488,190.81,186.66,982.59,-1505.0,-6195.0,-36032.5
25517,183.49,183.85,982.59,-3482.5,-4742.5,-35332.5
25545,174.58,180.8,984.17,-3395.0,-2572.5,-33897.5
25574,164.82,177.63,985.64,-997.5,-3185.0,-33127.5
25603,153.23,173.97,985.76,-1592.5,-2117.5,-30730.0
25632,138.1,170.07,986.13,-1662.5,105.0,-26600.0
25661,119.07,165.19,986.0,1732.5,-1120.0,-20195.0
25690,97.36,159.21,985.03,735.0,-1155.0,-10745.0
25719,75.15,152.5,986.98,-1435.0,1522.5,3062.5
25748,57.34,146.64,991.13,717.5,3307.5,15312.5
25777,45.02,143.47,994.54,1732.5,4742.5,21857.5
25807,37.58,142.5,997.23,4340.0,3430.0,27842.5
25836,35.62,143.23,998.2,5337.5,4637.5,29855.0
25866,34.89,144.08,997.84,4095.0,6090.0,29540.0
25895,33.79,145.18,997.72,5355.0,5372.5,34405.0
25925,35.75,146.64,996.98,5705.0,6212.5,37782.5
25954,39.89,147.86,995.52,5092.5,5215.0,36260.0
25983,43.19,149.08,994.06,5985.0,2327.5,35927.5
26012,47.34,151.16,992.35,5932.5,1400.0,38150.0
26041,56.73,154.33,990.88,5495.0,1872.5,38605.0
26070,71.49,159.09,988.81,5232.5,507.5,32865.0
26099,89.55,164.94,985.64,4882.5,-1995.0,25235.0
26128,110.04,172.26,981.37,945.0,507.5,16537.5
26157,130.54,179.83,977.1,-2852.5,1277.5,5670.0
26186,149.57,186.9,973.56,-4252.5,-490.0,-3972.5
26215,166.29,193.25,971.12,-6492.5,-787.5,-13352.5
26244,179.1,197.64,971.0,-7332.5,-1680.0,-21052.5
26273,188.25,199.35,971.85,-7210.0,-2275.0,-26547.5
26302,194.83,199.59,972.1,-7822.5,-2327.5,-31552.5
26331,198.37,198.62,971.12,-9310.0,-1960.0,-36557.5
26360,197.4,196.18,971.24,-9940.0,-3395.0,-40127.5
26389,193.25,192.52,972.71,-6650.0,-5372.5,-39235.0
26418,188.37,188.98,973.8,-7437.5,-5635.0,-38500.0
26447,182.27,185.32,977.1,-8487.5,-1820.0,-39795.0
26475,171.29,180.32,983.08,-4900.0,-2135.0,-39882.5
26504,155.06,174.46,989.54,-665.0,-2590.0,-35490.0
26533,135.18,168.6,995.15,2275.0,-1890.0,-29032.5
26562,114.19,162.87,999.79,7490.0,-4217.5,-21945.0
26591,93.57,157.38,1003.94,8120.0,-630.0,-12617.5
26620,72.83,152.87,1008.57,8575.0,4042.5,367.5
26649,55.75,149.82,1012.6,12162.5,4795.0,12302.5
26678,44.41,148.6,1014.31,13737.5,6842.5,18690.0
26707,36.36,148.6,1014.31,14577.5,8855.0,23572.5
26736,30.99,150.18,1011.87,15032.5,10115.0,28542.5
26765,28.55,152.87,1006.38,12635.0,10027.5,29890.0
26794,27.33,155.92,999.55,9730.0,9887.5,31097.5
26823,27.82,159.45,992.1,7122.5,11077.5,32305.0
26853,29.52,162.87,984.54,3115.0,10412.5,30047.5
26882,30.99,165.68,979.54,3307.5,5075.0,30012.5
26912,35.5,169.7,975.02,6265.0,1312.5,31570.0
26941,46.12,176.66,968.07,3937.5,1452.5,31150.0
26970,63.2,186.66,959.77,-3692.5,3902.5,25970.0
26999,82.47,197.15,953.8,-10360.0,2712.5,16327.5
27028,100.04,206.42,951.72,-11760.0,-945.0,7700.0
27057,116.14,214.35,952.45,-11812.5,-2030.0,490.0
27086,130.05,220.7,955.5,-12477.5,-1732.5,-6947.5
27115,141.03,224.97,959.04,-9065.0,-5407.5,-12950.0
27144,148.84,228.14,960.63,-8522.5,-6440.0,-17797.5
27173,153.72,230.34,962.7,-11725.0,-4130.0,-21595.0
27202,156.65,230.09,967.22,-12057.5,-2152.5,-24360.0
27231,157.99,228.26,971.61,-6720.0,-6965.0,-27650.0
27260,157.87,226.19,974.41,-5442.5,-8190.0,-29925.0
27289,157.5,224.24,976.24,-6282.5,-6107.5,-31447.5
27318,156.28,222.28,976.24,-7577.5,-7437.5,-34422.5
27347,153.23,219.84,978.07,-10167.5,-7490.0,-38185.0
27376,146.16,215.21,984.3,-6335.0,-4375.0,-38937.5
27405,134.08,208.99,989.79,-822.5,-5110.0,-34947.5
27434,119.07,202.4,995.03,87.5,-2887.5,-29522.5
27463,100.53,195.08,1001.86,4305.0,-105.0,-21892.5
27492,80.03,188.0,1006.87,9502.5,-1085.0,-10745.0
27521,61.61,182.27,1008.94,9345.0,2555.0,-175.0
27550,45.38,177.14,1010.04,9240.0,4865.0,8067.5
27579,31.11,172.63,1010.65,11077.5,5092.5,15610.0
27608,19.76,169.21,1009.79,11410.0,6615.0,22715.0
27637,11.96,167.14,1007.72,10745.0,8347.5,29330.0
27666,9.03,166.53,1005.28,10325.0,9117.5,34177.5
27695,10.0,167.26,1002.84,10447.5,9712.5,35455.0
27724,13.54,168.97,999.18,10342.5,8277.5,35910.0
27753,18.54,171.29,994.54,7140.0,9432.5,34422.5
27783,23.91,174.09,990.64,6177.5,7665.0,34475.0
27812,31.72,177.75,986.13,6195.0,5442.5,33565.0
27842,40.87,181.78,980.88,4060.0,4935.0,30940.0
27871,49.9,185.44,975.51,3045.0,3552.5,30817.5
27901,61.61,189.1,970.27,105.0,3622.5,30275.0
27930,75.88,192.88,966.36,-4095.0,3482.5,24587.5
27959,89.3,196.79,963.8,-5092.5,1715.0,18865.0
27988,101.63,201.54,960.75,-5180.0,-525.0,14227.5
28017,113.95,206.42,958.19,-7787.5,315.0,9450.0
28046,126.15,211.43,956.72,-8890.0,245.0,4462.5
28075,137.74,216.67,956.36,-9765.0,-1417.5,-1225.0
28104,148.96,221.43,956.97,-10535.0,-2450.0,-7332.5
28133,159.58,225.33,958.07,-10675.0,-3937.5,-13177.5
28162,169.46,228.38,959.65,-10360.0,-5127.5,-19005.0
28191,177.75,229.73,961.85,-10080.0,-6317.5,-24710.0
28220,183.0,229.24,964.41,-8400.0,-7717.5,-29627.5
28249,184.71,227.65,967.95,-8330.0,-7175.0,-32637.5
28278,183.85,224.72,973.68,-8907.5,-4007.5,-35052.5
28307,179.83,220.58,980.15,-4357.5,-5477.5,-35857.5
28336,173.97,217.53,984.78,-1785.0,-7070.0,-35490.0
28365,167.02,215.09,988.44,-3010.0,-4305.0,-35122.5
28394,157.14,212.28,992.47,-472.5,-5057.5,-34895.0
28423,143.11,208.99,996.5,3465.0,-5495.0,-31780.0
28451,125.17,204.47,1000.89,4847.5,-2730.0,-24815.0
28480,103.94,197.64,1005.77,9607.5,-1312.5,-14350.0
28508,81.37,189.71,1009.92,12967.5,-52.5,-1977.5
28537,61.24,183.12,1012.48,13965.0,3692.5,11567.5
28566,47.34,178.85,1012.11,15260.0,5232.5,21665.0
28595,39.89,176.78,1009.31,14665.0,6142.5,27265.0
28624,37.09,176.53,1006.01,11812.5,9397.5,31815.0
28653,37.94,177.88,1002.35,11917.5,8715.0,34387.5
28682,42.21,180.8,997.23,13037.5,6055.0,35070.0
28711,48.43,184.59,990.64,10027.5,6702.5,33670.0
28740,54.78,188.0,984.17,6440.0,7525.0,33600.0
28770,62.71,190.81,977.46,4725.0,6230.0,33110.0
28799,72.22,193.49,969.66,2170.0,4200.0,29312.5
28829,81.25,195.81,961.73,-1995.0,3990.0,27387.5
28858,91.87,198.25,955.38,-5950.0,4900.0,26722.5
28888,105.9,201.3,951.48,-8085.0,4550.0,22942.5
28917,121.76,204.96,949.89,-8942.5,2257.5,16975.0
28946,138.84,209.35,949.89,-9292.5,1347.5,10657.5
28975,156.04,214.23,950.62,-10097.5,805.0,3272.5
29004,172.26,217.77,950.87,-9782.5,-1487.5,-4025.0
29033,186.29,220.33,949.28,-10797.5,-4182.5,-10902.5
29061,197.27,222.53,948.55,-13842.5,-5425.0,-16940.0
29090,205.2,223.63,951.36,-15627.5,-2310.0,-20457.5
29118,210.94,222.77,957.7,-14752.5,-1820.0,-23852.5
29147,214.84,220.82,965.75,-7840.0,-9712.5,-29032.5
29176,217.28,218.99,971.61,-5285.0,-9170.0,-32812.5
29205,217.65,216.79,974.9,-6370.0,-5197.5,-35542.5
29234,215.45,214.35,976.73,-5582.5,-5425.0,-37222.5
29263,211.43,211.79,977.71,-5337.5,-5512.5,-38710.0
29292,205.81,209.11,979.17,-6142.5,-3377.5,-40040.0
29321,197.15,205.45,982.83,-4812.5,-2432.5,-40162.5
29350,185.2,200.57,987.83,-1417.5,-2450.0,-36977.5
29379,170.8,195.57,992.1,227.5,-315.0,-32357.5
29408,153.23,190.08,996.5,1837.5,1137.5,-26495.0
29437,132.25,183.98,1001.25,5932.5,2537.5,-15120.0
29466,112.24,178.0,1004.67,8487.5,3447.5,-3447.5
29495,95.04,172.51,1006.74,9537.5,5862.5,5530.0
29524,80.28,167.87,1007.6,12127.5,5425.0,13527.5
29553,68.08,164.09,1006.38,12530.0,6370.0,20895.0
29582,59.66,161.65,1003.33,11217.5,7962.5,27790.0
29611,55.88,160.67,1000.03,9362.5,9292.5,31745.0
29640,55.14,160.55,997.47,9187.5,9362.5,34545.0
29669,56.12,160.8,993.93,10045.0,7070.0,37082.5
29698,59.05,162.14,989.05,10027.5,5792.5,39690.0
29727,64.9,164.46,983.08,6912.5,5337.5,39217.5
29757,71.49,166.9,977.95,4200.0,4795.0,38027.5
29786,80.03,169.7,973.68,5635.0,2362.5,38972.5
29816,93.21,173.48,969.17,1312.5,2835.0,33740.0
29845,107.12,178.24,964.9,-3675.0,4830.0,27072.5
29874,120.29,183.61,961.85,-5320.0,4042.5,23362.5
29903,135.66,190.08,959.9,-6037.5,3080.0,17832.5
29932,152.74,197.88,958.92,-7280.0,2747.5,10027.5
29961,170.07,205.81,960.02,-7770.0,2222.5,1207.5
29990,186.29,212.77,962.34,-5232.5,-1120.0,-7385.0
30019,200.2,218.5,963.31,-4690.0,-2275.0,-14840.0
30047,211.3,222.77,962.82,-5880.0,-3167.5,-21542.5
30076,219.84,224.72,962.21,-6457.5,-4515.0,-27545.0
30105,224.97,224.97,961.6,-6650.0,-6335.0,-32060.0
30134,227.16,223.99,962.09,-8470.0,-5582.5,-35577.5
30163,226.19,221.92,963.92,-7927.5,-5442.5,-38027.5
30192,223.99,219.84,965.51,-5162.5,-9152.5,-39725.0
30221,221.8,217.53,967.09,-7280.0,-6160.0,-43190.0
30250,216.06,213.26,971.36,-9607.5,-577.5,-44695.0
30279,205.69,207.52,977.34,-4532.5,-3062.5,-43155.0
30308,192.64,201.54,981.37,-752.5,-5337.5,-41020.0
30337,177.14,195.93,982.71,-1505.0,-3255.0,-37117.5
30366,159.58,189.71,983.81,-3272.5,-2275.0,-34842.5
30395,139.32,181.9,987.47,-1522.5,-1837.5,-27825.0
30423,116.63,173.36,992.59,1242.5,1610.0,-13737.5
30452,94.92,165.19,997.47,4392.5,3587.5,787.5
30481,76.13,158.48,1001.62,8050.0,5757.5,12775.0
30510,60.51,153.96,1003.94,10797.5,7350.0,22505.0
30539,48.56,151.28,1004.67,12355.0,6650.0,30625.0
30568,40.5,149.45,1003.33,15277.5,2625.0,37135.0
30597,38.06,149.33,999.06,13807.5,3517.5,41597.5
30626,40.02,151.04,994.3,7105.0,11707.5,42682.5
30655,41.97,152.99,990.76,4620.0,13737.5,43400.0
30684,43.68,155.06,987.22,5600.0,9765.0,44905.0
30713,48.31,157.99,982.59,4637.5,7875.0,45710.0
30743,56.61,161.77,977.22,1540.0,7402.5,43925.0
30772,66.86,166.29,973.19,-1347.5,6965.0,41825.0
30802,79.54,171.9,970.14,-2170.0,4077.5,40145.0
30831,97.23,178.85,967.34,-4672.5,3045.0,33827.5
30861,116.02,186.17,966.0,-7507.5,1557.5,23957.5
30890,133.35,193.0,967.7,-5950.0,-1102.5,16677.5
30918,152.38,199.71,971.85,-3045.0,-997.5,8015.0
30947,170.92,206.42,976.24,-665.0,-1260.0,-3185.0
30976,185.81,212.4,979.17,1767.5,-2887.5,-10832.5
31005,198.49,217.65,980.39,2450.0,-2450.0,-18112.5
31034,208.86,221.43,980.39,3412.5,-3325.0,-26460.0
31063,216.18,223.75,978.81,3097.5,-3902.5,-32567.5
31092,220.58,225.09,976.49,1067.5,-3290.0,-37380.0
31121,221.8,225.33,974.05,507.5,-5127.5,-41982.5
31150,219.84,225.21,969.53,1277.5,-8522.5,-44415.0
31179,216.31,225.46,962.09,-3430.0,-9852.5,-46427.5
31208,210.33,223.87,956.36,-10377.5,-7805.0,-47950.0
31237,201.67,219.6,955.26,-10622.5,-7385.0,-47302.5
31266,191.3,214.11,956.48,-11112.5,-6387.5,-45675.0
31295,176.41,207.16,960.14,-12775.0,-1732.5,-42402.5
31324,157.5,199.23,965.39,-8680.0,-1592.5,-34772.5
31353,136.88,192.27,970.75,-5950.0,-1557.5,-27335.0
31382,113.46,185.93,976.61,-6737.5,2397.5,-16957.5
31410,89.43,178.73,983.2,-4235.0,2222.5,-4585.0
31439,68.56,172.02,989.91,2047.5,-70.0,6615.0
31468,51.73,167.14,994.79,5932.5,2135.0,17290.0
31497,38.8,163.6,997.72,7542.5,4060.0,26547.5
31526,29.16,160.55,999.67,9852.5,3412.5,33950.0
31555,24.64,158.84,1000.4,12512.5,3657.5,39462.5
31584,24.64,159.45,998.57,11952.5,5687.5,41247.5
31613,26.11,160.55,995.03,11060.0,5162.5,43172.5
31642,28.55,161.89,989.66,11217.5,4235.0,45762.5
31671,36.11,165.31,981.61,6230.0,3972.5,43855.0
31700,48.19,171.04,971.97,-332.5,4410.0,37275.0
31730,59.78,176.9,963.8,-7350.0,4060.0,32217.5
31759,72.1,182.27,960.63,-11550.0,6055.0,30800.0
31788,87.23,187.39,963.56,-13090.0,7245.0,25287.5
31817,104.92,193.25,971.36,-7577.5,2537.5,18217.5
31846,125.78,200.2,980.39,-1347.5,-332.5,8330.0
31875,147.01,208.01,986.49,1942.5,682.5,-3150.0
31904,164.09,214.84,989.18,3797.5,-1225.0,-13317.5
31933,177.27,219.97,989.18,5285.0,-2415.0,-20580.0
31962,187.88,223.5,986.74,3920.0,-2922.5,-28280.0
31991,194.47,225.21,983.44,1942.5,-2590.0,-34947.5
32020,196.91,224.97,979.54,1645.0,-4427.5,-39165.0
32049,196.91,223.99,973.07,70.0,-6562.5,-43890.0
32078,193.98,222.16,965.39,-4987.5,-6037.5,-48772.5
32107,187.27,218.99,959.29,-9572.5,-3832.5,-48545.0
32136,178.36,213.74,956.11,-12092.5,-5267.5,-47757.5
32165,164.82,206.67,957.7,-14402.5,-2380.0,-44222.5
32194,146.89,198.37,963.19,-13370.0,-1137.5,-35367.5
32223,126.88,189.59,972.22,-11445.0,770.0,-28507.5
32252,103.33,179.95,983.32,-4462.5,175.0,-19635.0
32282,78.08,171.04,992.59,2467.5,-927.5,-7227.5
32311,55.14,163.97,998.45,5390.0,1540.0,5425.0
32340,36.11,158.36,1002.11,7227.5,3220.0,15592.5
32369,21.23,154.21,1004.55,9607.5,3272.5,24605.0
32398,11.47,152.13,1005.4,10675.0,4007.5,30800.0
32427,6.59,151.77,1005.28,10465.0,6160.0,34982.5
32456,5.0,152.38,1004.43,11620.0,6230.0,36435.0
32485,4.39,153.23,1001.99,12407.5,4392.5,37327.5
32514,4.03,154.7,997.47,11725.0,3605.0,40215.0
32543,5.61,157.14,990.4,9887.5,2747.5,43732.5
32572,12.2,160.43,981.37,6947.5,-3955.0,42490.0
32601,23.3,165.19,973.44,4007.5,-5162.5,38185.0
32630,36.11,171.17,966.97,-1312.5,1925.0,36295.0
32660,50.87,177.75,963.07,-7787.5,6422.5,32830.0
32689,67.22,184.22,963.92,-7560.0,4515.0,25882.5
32719,84.42,190.69,967.95,-4550.0,1382.5,19127.5
32748,103.21,198.13,973.32,-1872.5,962.5,12092.5
32777,123.1,206.79,977.34,402.5,577.5,2870.0
32806,141.64,215.57,978.81,1277.5,52.5,-7000.0
32835,156.4,223.26,977.83,332.5,-1032.5,-14962.5
32864,167.75,228.63,976.0,-1470.0,-1680.0,-21385.0
32892,176.17,231.31,974.41,-1680.0,-1417.5,-27142.5
32921,181.54,231.92,973.07,-262.5,-3255.0,-31797.5
32950,184.71,231.56,970.39,-437.5,-5057.5,-36365.0
32979,184.1,230.46,966.36,-2572.5,-5372.5,-38587.5
33008,181.54,228.75,961.85,-5792.5,-5302.5,-40425.0
33037,176.78,225.21,957.7,-7315.0,-6877.5,-43155.0
33066,167.26,219.6,954.53,-7542.5,-7770.0,-41615.0
33095,153.72,214.11,953.06,-11462.5,-5460.0,-35122.5
33124,139.69,208.38,956.36,-16887.5,1732.5,-29032.5
33153,123.22,201.54,965.26,-12792.5,-437.5,-24937.5
33182,104.19,194.59,976.49,-4987.5,-3517.5,-18462.5
33211,84.67,188.86,986.37,332.5,-1680.0,-10745.0
33240,65.15,183.24,995.4,5320.0,1190.0,-1540.0
33269,47.46,178.24,1002.23,12407.5,332.5,8890.0
33298,33.79,174.83,1005.04,13072.5,962.5,16415.0
33327,23.79,172.87,1005.16,13492.5,2275.0,23817.5
33356,17.93,171.78,1002.84,12897.5,3342.5,30537.5
33385,15.62,170.92,998.81,9695.0,6282.5,33775.0
33414,14.52,170.43,994.06,6772.5,7857.5,37152.5
33443,15.86,171.29,988.32,7367.5,4900.0,40530.0
33472,21.84,173.36,981.0,4725.0,3955.0,40057.5
33501,29.4,176.29,972.83,-420.0,5390.0,38150.0
33531,36.23,178.97,965.14,-4777.5,3535.0,38185.0
33560,45.99,180.8,959.29,-8207.5,1907.5,35210.0
33589,56.36,182.27,958.19,-11935.0,5582.5,29855.0
33618,68.32,185.07,962.21,-7822.5,4165.0,30572.5
33648,89.18,191.42,968.07,-6142.5,2747.5,23432.5
33677,113.7,200.2,975.39,-5320.0,2905.0,9082.5
33707,135.66,208.86,982.59,-892.5,1032.5,-1907.5
33736,154.45,216.18,987.22,1925.0,17.5,-12390.0
33765,169.09,221.19,988.93,4077.5,-1942.5,-21630.0
33794,179.71,224.24,988.2,3990.0,-3220.0,-28367.5
33823,186.54,225.21,986.49,3395.0,-2555.0,-34317.5
33852,190.2,224.48,983.81,1907.5,-3010.0,-38150.0
33881,189.95,222.41,979.78,665.0,-2607.5,-40775.0
33910,187.76,220.09,973.32,2747.5,-6195.0,-41562.5
33939,184.95,217.65,964.78,-3710.0,-4917.5,-45342.5
33968,177.02,213.01,960.02,-13685.0,-857.5,-45885.0
33997,163.36,205.2,962.21,-15855.0,3237.5,-41387.5
34026,144.08,195.57,967.95,-11462.5,175.0,-35455.0
34055,119.07,185.68,975.88,-6877.5,-4025.0,-26827.5
34084,91.38,176.41,985.76,-1557.5,-3290.0,-12897.5
34113,66.37,168.85,993.81,3202.5,-682.5,367.5
34143,45.63,163.6,997.72,4672.5,1382.5,9380.0
34172,28.79,160.06,998.81,4217.5,4165.0,18480.0
34202,16.47,157.26,999.06,3605.0,7000.0,25690.0
34231,8.3,155.06,998.45,4462.5,6265.0,30572.5
34260,4.39,153.84,996.37,3482.5,7455.0,33285.0
34289,3.54,153.72,994.18,945.0,10500.0,35087.5
34318,5.0,153.96,992.71,1785.0,10010.0,36820.0
34347,8.54,154.57,990.52,17.5,11900.0,36522.5
34376,13.91,155.92,988.2,-3937.5,14490.0,34772.5
34405,20.86,158.11,986.49,-4970.0,12302.5,31307.5
34434,30.01,161.65,985.52,-6422.5,10867.5,25620.0
34463,40.75,166.41,986.49,-4602.5,8137.5,19372.5
34492,53.92,171.65,988.44,-3325.0,7227.5,13667.5
34521,69.17,177.88,989.91,-1452.5,4795.0,3272.5
34550,82.23,183.85,989.91,525.0,1067.5,-8557.5
34580,91.26,188.61,988.93,-2275.0,455.0,-16327.5
34609,96.26,191.05,988.93,-4585.0,1715.0,-21402.5
34638,99.06,191.05,990.15,-2922.5,-1557.5,-28087.5
34667,98.7,189.47,990.88,-2922.5,-2502.5,-33512.5
34696,93.09,186.29,990.64,-4917.5,-1890.0,-33687.5
34725,85.28,182.02,990.88,-5267.5,-3220.0,-33197.5
34754,76.37,176.9,991.74,-4830.0,-4270.0,-33215.0
34783,65.27,170.92,992.1,-4567.5,-7350.0,-31692.5
34811,51.48,164.82,990.88,-6212.5,-11462.5,-27072.5
34840,35.5,157.5,991.37,-11427.5,-4462.5,-20825.0
34868,16.47,147.86,996.25,-7840.0,875.0,-14350.0
34897,-6.83,136.4,1000.64,262.5,-6860.0,-6212.5
34926,-30.99,124.81,1002.35,-752.5,-4130.0,8995.0
34955,-49.78,114.8,1004.06,-2887.5,3430.0,20842.5
34984,-63.07,106.38,1005.52,-1470.0,6370.0,28262.5
35013,-72.59,99.67,1006.01,-1050.0,7437.5,35525.0
35042,-75.64,95.4,1004.91,-822.5,7997.5,35647.5
35071,-75.88,92.35,1001.86,-4602.5,10045.0,31675.0
35100,-78.32,89.06,1000.77,-8137.5,10167.5,30730.0
35129,-81.5,83.69,1002.23,-2380.0,7175.0,33057.5
35158,-81.74,78.2,1002.96,630.0,5355.0,37957.5
35188,-76.74,75.64,1001.74,-3500.0,7735.0,38640.0
35217,-69.05,74.54,1001.38,-6685.0,8435.0,36190.0
35246,-58.56,75.03,1002.6,-4760.0,4777.5,31797.5
35275,-44.65,77.35,1004.55,-3902.5,2835.0,23695.0
35305,-29.77,80.52,1008.45,-2117.5,1960.0,14857.5
35334,-14.76,84.42,1012.6,2100.0,-105.0,6142.5
35363,-0.73,88.33,1015.04,3832.5,-525.0,-3937.5
35392,10.13,91.62,1016.26,4042.5,-175.0,-11882.5
35421,17.93,93.7,1016.75,4690.0,-997.5,-18987.5
35450,23.3,94.67,1016.5,5442.5,-3902.5,-25217.5
35479,26.35,94.43,1015.41,3290.0,-2135.0,-28665.0
35508,27.82,93.21,1014.31,2607.5,-2047.5,-31342.5
35537,28.91,91.87,1012.84,4322.5,-6300.0,-36067.5
35566,27.57,90.52,1011.62,3657.5,-8487.5,-40582.5
35595,22.69,88.33,1011.62,2502.5,-6545.0,-39917.5
35624,16.96,85.77,1012.36,105.0,-4042.5,-39532.5
35653,10.25,82.72,1013.7,892.5,-4287.5,-41667.5
35682,-0.73,78.08,1015.41,2555.0,-3325.0,-40582.5
35711,-16.1,72.1,1015.65,2590.0,-1977.5,-35700.0
35740,-34.04,65.39,1014.92,1470.0,-2327.5,-30047.5
35769,-54.17,58.56,1013.94,3255.0,-4042.5,-24132.5
35798,-77.47,51.12,1011.38,3010.0,-3587.5,-14595.0
35827,-101.38,43.55,1009.55,17.5,-192.5,1382.5
35857,-119.56,37.58,1009.43,682.5,2012.5,15487.5
35886,-130.78,33.43,1008.57,1155.0,2222.5,22417.5
35915,-139.08,30.5,1006.62,-227.5,3010.0,28402.5
35944,-143.84,28.3,1004.43,-1925.0,4130.0,35315.0
35973,-143.72,27.45,1002.72,-3535.0,4795.0,37397.5
36002,-141.52,27.08,1001.38,-4025.0,3377.5,38027.5
36031,-137.98,26.96,1000.89,-5022.5,2765.0,39987.5
36060,-131.27,27.45,1001.38,-3692.5,1750.0,40215.0
36089,-121.39,29.16,1001.38,-1820.0,-805.0,37467.5
36118,-109.8,32.21,1000.16,-3972.5,-945.0,33355.0
36147,-97.11,36.36,1000.16,-5582.5,-192.5,30170.0
36176,-81.01,41.48,1002.72,-5040.0,-420.0,25655.0
36205,-60.27,47.82,1006.38,-3395.0,315.0,14560.0
36234,-40.99,54.78,1009.79,-1907.5,-52.5,2310.0
36263,-24.4,61.37,1013.82,-1225.0,1225.0,-5092.5
36292,-8.78,66.12,1018.94,2625.0,385.0,-13755.0
36321,4.39,69.54,1021.63,6475.0,-2625.0,-22575.0
36351,13.79,71.98,1021.87,7437.5,-3570.0,-28717.5
36380,20.01,73.44,1019.92,7420.0,-4830.0,-32375.0
36409,23.67,74.18,1016.75,5232.5,-5285.0,-37030.0
36438,24.03,74.3,1014.92,3447.5,-4427.5,-39865.0
36467,22.57,72.96,1015.04,3360.0,-4672.5,-42577.5
36496,18.3,70.76,1015.28,5092.5,-6597.5,-46147.5
36525,8.66,67.47,1014.55,4357.5,-6755.0,-45850.0
36554,-6.47,62.71,1013.33,2537.5,-4147.5,-39865.0
36583,-25.74,56.85,1012.11,682.5,-2012.5,-31640.0
36612,-49.17,50.02,1012.23,1487.5,-2117.5,-21035.0
36641,-74.66,42.46,1012.23,4042.5,-4217.5,-6317.5
36670,-97.36,36.11,1011.14,3062.5,-2170.0,8855.0
36699,-114.56,31.48,1009.31,700.0,1960.0,22312.5
36728,-126.03,28.06,1007.6,-87.5,2677.5,31990.0
36757,-131.39,25.38,1005.77,-560.0,3307.5,37852.5
36786,-132.13,23.79,1003.94,-3255.0,5477.5,40215.0
36815,-129.69,23.42,1003.08,-4077.5,6072.5,42805.0
36844,-123.59,24.89,1002.72,-3412.5,4655.0,44012.5
36873,-114.68,27.82,1002.6,-1645.0,1522.5,43645.0
36901,-103.21,32.09,1001.5,-2870.0,455.0,43452.5
36930,-87.23,37.94,1001.99,-5757.5,420.0,39042.5
36959,-66.37,45.26,1005.65,-4042.5,-1277.5,30870.0
36988,-41.48,54.29,1010.89,-612.5,-2992.5,19197.5
37017,-14.76,64.29,1015.16,1942.5,-1732.5,5232.5
37046,9.27,73.2,1017.6,4007.5,-3010.0,-9695.0
37075,27.82,79.79,1018.21,6195.0,-5845.0,-20352.5
37104,42.33,84.67,1016.5,5390.0,-5530.0,-28350.0
37133,53.07,88.08,1013.45,2922.5,-3955.0,-36032.5
37162,58.8,89.3,1011.14,1225.0,-5565.0,-43190.0
37191,59.05,88.57,1009.43,-262.5,-5372.5,-46497.5
37220,54.66,86.25,1007.72,-1872.5,-5530.0,-48335.0
37249,44.65,81.62,1007.11,-2485.0,-5285.0,-48212.5
37278,27.69,75.27,1007.72,-1435.0,-4777.5,-41107.5
37307,6.95,68.08,1008.57,-1505.0,-4077.5,-30187.5
37336,-15.13,60.88,1009.55,-2275.0,-3010.0,-19582.5
37365,-38.67,53.68,1011.38,-770.0,-2485.0,-6352.5
37395,-59.78,47.21,1013.21,1627.5,-1085.0,9415.0
37424,-74.18,42.82,1012.84,945.0,1802.5,20615.0
37453,-82.47,40.26,1011.38,-52.5,2625.0,27125.0
37482,-86.62,38.8,1009.06,-630.0,2590.0,32707.5
37511,-87.11,38.06,1007.11,-4077.5,4830.0,37765.0
37540,-83.57,37.45,1007.96,-4900.0,6002.5,41037.5
37569,-77.35,36.84,1010.89,-2187.5,4340.0,40862.5
37598,-70.27,36.84,1013.58,1102.5,1470.0,40110.0
37627,-61.73,38.31,1014.06,1295.0,1347.5,39007.5
37656,-51.61,41.11,1013.21,-350.0,1837.5,36330.0
37685,-39.41,45.14,1012.72,87.5,297.5,32550.0
37715,-22.2,51.36,1012.11,560.0,-1452.5,27020.0
37744,0.61,60.15,1011.87,122.5,-1627.5,15977.5
37774,25.5,70.03,1012.11,542.5,-385.0,1190.0
37803,47.09,78.57,1012.23,140.0,-1785.0,-13037.5
37833,62.95,84.42,1012.23,262.5,-3185.0,-23520.0
37862,73.93,87.6,1012.6,-210.0,-2712.5,-31360.0
37892,81.01,88.57,1013.21,455.0,-3552.5,-38132.5
37921,83.2,87.6,1013.21,1120.0,-4970.0,-42770.0
37950,80.4,85.77,1012.84,2345.0,-8120.0,-41755.0
37979,76.13,83.57,1011.62,1802.5,-6405.0,-39567.5
38008,71.0,81.25,1009.67,-1750.0,-6177.5,-39305.0
38037,63.2,77.96,1008.94,-875.0,-9992.5,-41160.0
38066,50.51,72.71,1009.92,-1942.5,-7105.0,-37572.5
38095,32.33,66.0,1011.99,-4287.5,70.0,-27387.5
38124,10.98,58.8,1015.04,-1277.5,-840.0,-15680.0
38153,-11.35,51.24,1018.7,2835.0,-997.5,-1907.5
38182,-31.35,44.53,1021.51,5635.0,2537.5,14665.0
38211,-45.51,39.53,1021.87,6457.5,3675.0,25777.5
38240,-53.8,36.6,1019.92,6020.0,3867.5,32550.0
38269,-57.83,35.38,1016.87,3885.0,6212.5,37520.0
38298,-59.29,34.89,1014.06,2275.0,6352.5,41125.0
38327,-58.07,35.26,1012.11,3430.0,4847.5,46112.5
38356,-50.14,37.58,1009.67,2502.5,3412.5,44817.5
38386,-39.04,40.99,1007.11,-1505.0,4340.0,39182.5
38415,-29.65,44.9,1006.01,-2905.0,3955.0,37152.5
38445,-19.03,49.04,1005.65,-1785.0,2782.5,35507.5
38474,-5.98,53.68,1006.01,-2817.5,1802.5,30992.5
38503,9.27,59.66,1008.09,-1032.5,1085.0,27300.0
38532,29.65,68.08,1010.04,280.0,-210.0,19530.0
38561,54.66,78.57,1011.75,2660.0,-2432.5,5477.5
38590,78.57,88.57,1012.23,2747.5,-2117.5,-9292.5
38619,97.36,96.38,1011.62,2012.5,-2415.0,-20527.5
38648,112.61,101.99,1011.01,2030.0,-3780.0,-30572.5
38677,124.2,105.16,1010.16,1435.0,-4462.5,-40512.5
38706,130.3,106.14,1009.18,-735.0,-4865.0,-46427.5
38735,131.52,105.53,1008.45,-1172.5,-5285.0,-49420.0
38764,128.83,103.33,1007.96,-1102.5,-5547.5,-51047.5
38793,122.73,99.55,1007.48,-1750.0,-5110.0,-51502.5
38822,112.61,94.18,1006.62,-2257.5,-5460.0,-51730.0
38851,96.75,87.6,1006.26,-1925.0,-5932.5,-47932.5
38880,75.03,80.15,1006.99,-2100.0,-3622.5,-38517.5
38909,51.0,72.22,1008.7,-1470.0,-2275.0,-25165.0
38938,26.6,63.81,1010.89,-175.0,122.5,-12232.5
38967,1.95,55.39,1011.87,280.0,1715.0,1557.5
38996,-20.5,48.31,1012.11,805.0,3500.0,16992.5
39025,-37.94,43.07,1011.26,1907.5,4707.5,31237.5
39054,-47.7,39.77,1009.18,612.5,6492.5,41510.0
39083,-49.53,38.92,1007.6,-437.5,6562.5,44590.0
39112,-47.7,39.41,1006.5,560.0,4060.0,44957.5
39141,-44.9,40.14,1005.04,227.5,3395.0,47617.5
39170,-38.06,42.09,1003.33,-945.0,3535.0,49805.0
39199,-26.11,45.75,1001.13,-2467.5,3272.5,45867.5
39228,-13.3,49.9,999.42,-4585.0,2030.0,40127.5
39257,2.44,55.02,1000.03,-4410.0,-962.5,34037.5
39286,24.16,61.73,1003.33,-4672.5,-105.0,21437.5
39316,46.85,69.66,1008.33,-3045.0,857.5,8977.5
39345,68.69,78.57,1012.72,-35.0,402.5,-787.5
39375,89.91,86.86,1016.14,1942.5,-1190.0,-14280.0
39404,106.63,92.6,1018.46,3762.5,-2082.5,-25392.5
39432,118.58,96.38,1018.7,4462.5,-2992.5,-34177.5
39461,126.39,98.45,1017.85,4427.5,-4357.5,-42297.5
39490,129.81,98.58,1015.89,2590.0,-4340.0,-47985.0
39519,127.86,96.75,1014.06,315.0,-3272.5,-50872.5
39548,120.41,93.45,1011.87,1277.5,-5145.0,-49280.0
39577,109.31,89.43,1009.79,-1120.0,-4165.0,-46690.0
39606,93.82,84.55,1009.92,-2012.5,-3587.5,-41597.5
39635,75.4,78.93,1010.65,630.0,-5320.0,-34527.5
39664,54.41,72.35,1011.62,122.5,-2660.0,-25760.0
39693,30.01,64.66,1013.09,2100.0,-175.0,-13545.0
39722,5.49,57.1,1012.97,4147.5,-2590.0,-280.0
39752,-15.98,50.63,1012.23,2485.0,1330.0,13702.5
39781,-33.06,45.87,1011.87,2205.0,4830.0,27615.0
39811,-43.92,42.7,1011.87,3622.5,6422.5,38710.0
39840,-46.97,41.97,1010.89,3412.5,6002.5,42647.5
39870,-45.63,43.31,1009.43,1767.5,5582.5,41737.5
39899,-43.92,45.02,1008.21,1960.0,4427.5,44065.0
39928,-40.26,47.21,1006.13,1015.0,4532.5,47565.0
39957,-31.96,50.51,1003.45,-507.5,3202.5,45745.0
39986,-21.11,54.78,1000.64,-2660.0,3062.5,41387.5
40015,-8.54,59.9,998.69,-4970.0,3237.5,37817.5
40044,6.83,65.88,998.69,-7385.0,4235.0,31937.5
40073,24.4,72.47,1001.38,-6685.0,2975.0,24062.5
40102,45.02,80.03,1006.26,-4200.0,1102.5,15505.0
40131,68.08,88.69,1011.99,-1190.0,1225.0,2537.5
40160,88.45,96.75,1016.5,2922.5,-892.5,-10185.0
40189,104.8,103.09,1018.09,4602.5,-2415.0,-19775.0
40218,117.73,107.6,1017.85,4270.0,-2275.0,-28805.0
40247,127.12,110.17,1016.99,3920.0,-3097.5,-35787.5
40276,133.59,110.65,1015.53,2905.0,-4357.5,-42577.5
40305,136.4,109.43,1012.84,2712.5,-6492.5,-47022.5
40334,136.15,107.36,1009.18,1925.0,-7665.0,-49157.5
40363,132.74,104.19,1006.87,-2100.0,-5162.5,-51292.5
40392,124.68,99.55,1007.23,-1487.5,-6527.5,-53112.5
40420,111.26,93.82,1007.72,-35.0,-7192.5,-50347.5
40449,92.84,87.11,1008.09,-2940.0,-3132.5,-45150.0
40478,68.08,79.91,1009.06,-840.0,-3815.0,-36890.0
40507,40.63,73.32,1008.7,945.0,-6562.5,-24010.0
40536,14.15,66.98,1008.45,-1277.5,-1487.5,-9450.0
40565,-10.61,59.9,1009.18,367.5,-472.5,6492.5
40594,-30.74,53.19,1010.04,1050.0,1890.0,20352.5
40623,-45.38,48.07,1010.65,857.5,3780.0,31902.5
40652,-53.92,44.77,1011.38,2415.0,3657.5,40862.5
40681,-57.71,42.7,1012.11,3552.5,4952.5,47127.5
40710,-57.58,41.36,1012.6,6510.0,3657.5,53777.5
40739,-50.75,41.97,1010.77,5460.0,3657.5,54022.5
40768,-41.97,43.43,1008.33,1977.5,4725.0,51047.5
40798,-33.18,46.24,1006.87,2957.5,2660.0,54075.0
40827,-17.2,50.63,1005.28,2065.0,1312.5,50522.5
40857,2.68,56.36,1003.82,-1190.0,3622.5,38587.5
40886,20.86,63.56,1003.21,-1592.5,2712.5,31307.5
40915,43.68,73.2,1003.08,-2625.0,6212.5,24605.0
40944,72.1,84.42,1004.43,-5407.5,8225.0,7105.0
40973,97.84,95.16,1007.23,472.5,-280.0,-9292.5
41002,119.56,104.68,1008.7,2852.5,-3395.0,-22417.5
41030,137.01,111.63,1008.09,122.5,-1260.0,-35245.0
41059,149.33,115.66,1006.62,-1960.0,-2730.0,-45062.5
41087,158.97,117.36,1004.3,-3780.0,-5407.5,-55300.0
41116,163.72,115.66,1002.96,-5407.5,-7437.5,-65082.5
41144,161.77,110.78,1003.33,-4252.5,-6667.5,-67252.5
41173,155.43,104.43,1004.18,-2922.5,-5355.0,-67375.0
41202,144.2,96.14,1004.67,-1680.0,-5302.5,-66500.0
41231,125.9,85.77,1004.43,-2187.5,-560.0,-61495.0
41260,98.7,75.52,1003.94,-3010.0,490.0,-50347.5
41289,67.22,65.88,1004.06,-1242.5,-2467.5,-34755.0
41318,36.97,55.75,1005.77,-1767.5,-385.0,-18305.0
41347,8.54,45.51,1008.94,1050.0,997.5,-490.0
41376,-15.37,37.21,1010.89,2712.5,2082.5,16870.0
41406,-32.7,31.23,1011.14,1855.0,4620.0,29190.0
41435,-46.12,26.35,1011.38,3727.5,3990.0,38640.0
41464,-56.24,22.94,1011.01,5180.0,3797.5,49927.5
41493,-60.76,21.23,1009.67,4200.0,3395.0,58187.5
41522,-59.9,20.98,1007.96,4480.0,1925.0,62475.0
41551,-53.44,21.96,1006.62,4147.5,-87.5,62090.0
41580,-41.72,24.77,1005.65,4655.0,-35.0,58450.0
41609,-26.84,29.77,1004.3,3202.5,647.5,52675.0
41638,-10.61,36.6,1002.72,2310.0,647.5,47232.5
41667,9.15,45.26,1001.13,1155.0,210.0,39270.0
41696,32.45,55.75,999.91,-2257.5,1312.5,26880.0
41725,55.51,67.1,1001.01,-2222.5,945.0,14735.0
41754,77.84,78.2,1002.72,0.0,-122.5,4007.5
41784,99.31,89.06,1003.08,-490.0,-140.0,-7787.5
41813,117.97,98.58,1003.33,-315.0,-1592.5,-19757.5
41842,132.74,105.65,1003.69,490.0,-3342.5,-29295.0
41871,144.94,110.78,1003.94,-787.5,-1837.5,-38360.0
41900,153.23,113.34,1004.3,-1662.5,-4165.0,-47215.0
41929,157.14,113.95,1003.94,787.5,-7035.0,-52570.0
41958,157.5,113.7,1001.62,-490.0,-7735.0,-56752.5
41987,150.91,110.78,999.18,-4025.0,-5827.5,-56945.0
42015,138.47,106.14,996.74,770.0,-11812.5,-49455.0
42044,126.64,102.11,992.1,-1120.0,-11900.0,-44047.5
42072,113.22,96.75,990.15,-9905.0,-4497.5,-40827.5
42101,93.45,88.33,994.79,-9817.5,-1435.0,-32375.0
42130,68.93,78.57,1002.47,-4147.5,-2240.0,-20405.0
42159,43.92,69.54,1009.31,595.0,-2135.0,-7665.0
42188,20.98,62.59,1013.7,3360.0,420.0,5250.0
42218,1.95,58.07,1015.53,5337.5,1627.5,17115.0
42247,-12.32,55.02,1015.89,5460.0,4077.5,27492.5
42276,-21.23,53.44,1015.77,5407.5,6702.5,35962.5
42305,-25.86,52.7,1015.04,5390.0,7875.0,41265.0
42334,-28.3,52.7,1013.21,5040.0,6527.5,45710.0
42363,-25.99,54.53,1010.4,4200.0,4252.5,50855.0
42392,-17.08,57.83,1007.72,577.5,6755.0,48510.0
42421,-8.3,59.78,1006.26,-437.5,6930.0,43890.0
42451,-1.95,60.76,1005.4,1540.0,3202.5,43085.0
42480,6.71,63.07,1003.21,1050.0,3377.5,43995.0
42510,20.74,68.08,1000.89,-3115.0,5355.0,40162.5
42539,39.77,75.64,1001.13,-3570.0,3605.0,33355.0
42568,63.68,85.4,1003.57,-595.0,-35.0,21770.0
42597,89.55,96.62,1006.01,1417.5,-1260.0,7087.5
42626,112.97,107.6,1007.11,1715.0,-612.5,-6037.5
42655,132.49,116.63,1007.96,2922.5,-2100.0,-18340.0
42683,148.23,123.46,1007.84,4620.0,-5040.0,-29085.0
42712,160.43,128.22,1005.89,2450.0,-4165.0,-38850.0
42741,167.38,130.42,1003.45,-262.5,-4060.0,-45920.0
42770,169.82,130.3,1000.4,927.5,-8575.0,-51240.0
42799,168.48,129.32,996.01,-420.0,-10167.5,-53725.0
42828,162.87,127.25,992.96,-7437.5,-3902.5,-52185.0
42857,154.33,123.22,993.2,-7385.0,-3395.0,-50330.0
42886,142.37,117.12,994.79,-6702.5,-3710.0,-48930.0
42915,123.59,108.58,997.72,-6475.0,-1855.0,-43470.0
42944,97.84,98.09,1002.35,-2310.0,-1680.0,-32392.5
42973,67.59,86.74,1005.65,1172.5,-2310.0,-16205.0
43002,37.58,76.49,1006.99,1522.5,-612.5,1767.5
43031,13.18,68.2,1007.48,1925.0,910.0,16135.0
43061,-4.39,62.71,1007.84,2660.0,2572.5,27370.0
43090,-15.13,60.02,1007.6,2135.0,5075.0,35525.0
43119,-20.13,59.66,1006.99,2135.0,6020.0,40022.5
43148,-21.35,61.0,1006.38,2345.0,6317.5,44397.5
43177,-18.79,63.44,1005.28,1785.0,5390.0,46340.0
43206,-15.01,65.39,1004.18,1732.5,4532.5,47530.0
43235,-9.27,67.47,1003.21,1627.5,2030.0,50400.0
43264,1.59,70.27,1002.35,1032.5,1295.0,46865.0
43293,14.64,74.3,1000.89,17.5,455.0,39252.5
43323,27.33,79.18,998.94,-612.5,140.0,34475.0
43352,41.97,84.67,997.84,-2782.5,1295.0,29907.5
43381,59.9,90.89,999.42,-3920.0,1085.0,21332.5
43410,80.52,98.33,1004.3,-192.5,-2135.0,13615.0
43439,105.41,107.6,1008.94,3675.0,-2257.5,3150.0
43468,130.17,117.61,1009.67,4935.0,-4305.0,-12372.5
43497,149.21,125.66,1007.23,3465.0,-6772.5,-24885.0
43526,162.99,130.78,1003.45,385.0,-5722.5,-32602.5
43555,173.24,133.1,1000.16,-3867.5,-4357.5,-40810.0
43584,178.36,132.61,999.42,-4480.0,-4357.5,-48037.5
43613,178.24,129.93,1000.16,-2397.5,-5285.0,-50452.5
43642,175.44,126.39,1000.16,-3027.5,-4725.0,-51782.5
43670,169.09,122.24,999.67,-3885.0,-4217.5,-52517.5
43699,158.48,116.75,998.2,-4340.0,-5740.0,-50960.0
43727,142.25,109.68,997.47,-6562.5,-3885.0,-47792.5
43756,118.83,99.55,999.91,-5985.0,-2572.5,-39287.5
43785,89.67,88.33,1004.43,-1015.0,-2187.5,-24255.0
43814,59.29,78.08,1008.57,1837.5,70.0,-6055.0
43843,32.7,69.78,1011.62,4340.0,3185.0,12145.0
43872,13.79,64.66,1012.48,5652.5,4445.0,24360.0
43901,2.2,62.83,1011.14,5110.0,5792.5,31745.0
43931,-4.39,63.07,1009.18,3885.0,7455.0,36680.0
43960,-7.2,64.66,1006.38,3465.0,6895.0,40197.5
43990,-5.86,66.86,1003.69,17.5,6545.0,41247.5
44019,-1.34,69.17,1003.94,-2275.0,8557.5,39935.0
44048,3.42,71.74,1005.28,1277.5,5600.0,39830.0
44077,9.52,74.42,1004.06,2117.5,2975.0,40005.0
44107,18.3,77.96,1001.62,-140.0,4497.5,38325.0
44136,30.5,82.47,1000.16,-1680.0,3867.5,35122.5
44166,46.6,88.57,1000.77,-805.0,2030.0,29470.0
44195,66.49,96.14,1002.35,1610.0,140.0,20755.0
44225,88.33,105.53,1003.21,1207.5,-910.0,9520.0
44254,110.29,115.41,1003.82,1172.5,-507.5,-2380.0
44283,129.44,124.2,1003.82,1837.5,-2117.5,-14892.5
44312,143.96,131.03,1003.45,1820.0,-3167.5,-24447.5
44340,154.57,135.79,1003.45,1732.5,-3447.5,-31552.5
44369,162.26,138.59,1003.33,2642.5,-5687.5,-39200.0
44397,165.68,139.69,1001.86,2450.0,-6702.5,-45360.0
44426,164.33,140.3,999.06,1067.5,-7927.5,-47565.0
44455,160.31,139.69,995.4,-3097.5,-6352.5,-49647.5
44484,151.77,136.64,992.71,-6912.5,-4270.0,-51222.5
44513,137.62,130.78,992.59,-7437.5,-4200.0,-47775.0
44542,120.05,122.24,993.81,-8085.0,-2835.0,-42647.5
44571,97.84,111.75,996.13,-7052.5,-2520.0,-34562.5
44600,71.25,100.16,998.69,-3587.5,-2117.5,-21052.5
44629,43.68,88.69,1001.13,-3605.0,1452.5,-5757.5
44658,16.96,77.84,1004.55,-805.0,2817.5,11147.5
44687,-3.42,69.54,1007.11,2922.5,2677.5,25795.0
44717,-15.86,64.9,1008.45,3517.5,5145.0,35245.0
44746,-22.33,63.2,1008.82,5617.5,4970.0,42437.5
44776,-22.81,63.81,1007.84,4672.5,4462.5,44765.0
44805,-19.89,65.88,1006.62,3640.0,5040.0,45185.0
44835,-14.88,69.42,1004.43,4392.5,2677.5,46812.5
44864,-6.22,73.69,1000.4,3360.0,210.0,44205.0
44893,4.03,77.47,996.25,227.5,280.0,39025.0
44923,14.15,81.5,994.3,-1312.5,-350.0,36365.0
44952,28.43,87.11,994.18,-525.0,-1627.5,33722.5
44981,49.04,94.67,996.01,-2327.5,1400.0,27790.0
45010,74.3,104.19,1000.16,-735.0,2870.0,17027.5
45039,100.77,114.68,1003.57,2240.0,175.0,1015.0
45068,123.95,124.68,1004.67,2712.5,-2712.5,-14157.5
45097,142.13,132.37,1004.3,1662.5,-3150.0,-25252.5
45126,155.67,137.25,1004.18,805.0,-2520.0,-34072.5
45155,164.94,139.32,1004.43,1505.0,-4112.5,-42175.0
45184,169.21,139.08,1004.3,1575.0,-4410.0,-47985.0
45213,169.34,137.86,1003.21,1312.5,-5337.5,-51222.5
45242,165.68,135.66,1000.77,577.5,-6405.0,-54127.5
45271,156.89,132.49,997.23,-1330.0,-7647.5,-54215.0
45300,142.74,127.12,994.42,-4952.5,-6055.0,-52290.0
45329,120.78,118.58,994.06,-5757.5,-4357.5,-45027.5
45358,92.48,107.85,995.15,-6370.0,-2415.0,-30957.5
45387,60.51,96.26,998.69,-4917.5,87.5,-13142.5
45416,29.04,85.16,1002.47,1382.5,-1050.0,6107.5
45445,4.64,76.37,1004.55,1120.0,1382.5,21122.5
45474,-11.83,70.76,1007.23,1242.5,5197.5,31395.0
45503,-22.45,67.71,1009.43,4830.0,5565.0,40512.5
45532,-27.69,65.88,1009.18,4270.0,7840.0,45972.5
45561,-29.16,65.27,1008.21,2940.0,7490.0,48807.5
45590,-26.72,65.88,1006.62,3762.5,5337.5,52272.5
45619,-19.4,67.1,1003.57,1032.5,6405.0,50435.0
45648,-11.47,69.78,1000.89,-735.0,5145.0,48860.0
45677,-0.98,73.93,998.69,-665.0,3360.0,50487.5
45707,15.62,79.42,997.47,-4480.0,6002.5,42997.5
45736,33.31,85.52,998.81,-3482.5,2887.5,33950.0
45766,53.68,93.45,1001.01,-1330.0,840.0,27650.0
45795,79.67,103.09,1003.33,-1452.5,2642.5,14787.5
45824,105.29,112.73,1005.52,507.5,192.5,-717.5
45853,127.98,121.63,1006.5,1732.5,-1662.5,-13090.0
45882,146.89,128.95,1006.38,875.0,-1837.5,-25830.0
45911,159.82,133.47,1006.5,1522.5,-4200.0,-35507.5
45940,167.26,135.3,1005.77,1995.0,-5827.5,-42297.5
45969,170.8,135.66,1003.57,-175.0,-6615.0,-47215.0
45997,172.14,134.81,1001.62,-2677.5,-7385.0,-52797.5
46026,169.58,131.88,1001.38,-3010.0,-5967.5,-55965.0
46054,162.02,126.64,1001.86,-2380.0,-5092.5,-56262.5
46083,149.94,119.56,1001.86,-2625.0,-4690.0,-55265.0
46111,131.76,111.02,1001.25,-1540.0,-5320.0,-50400.0
46140,107.85,101.5,999.79,-2817.5,-4270.0,-40495.0
46169,80.28,91.38,999.67,-4585.0,-3832.5,-28665.0
46198,50.39,80.76,1002.6,-2292.5,-2362.5,-13317.5
46227,21.96,71.61,1006.74,1120.0,647.5,6650.0
46257,0.73,65.15,1009.18,2467.5,3972.5,21297.5
46286,-13.42,61.61,1010.04,3535.0,4217.5,30922.5
46315,-21.47,60.51,1010.04,4777.5,4637.5,38167.5
46344,-23.91,61.0,1009.06,4515.0,5617.5,42122.5
46374,-20.74,63.2,1007.72,3605.0,4690.0,42402.5
46403,-14.03,66.98,1006.13,2730.0,4287.5,39410.0
46433,-7.08,70.76,1004.3,1487.5,3832.5,37362.5
46462,-0.37,74.3,1002.96,105.0,3972.5,36925.0
46491,6.95,77.59,1002.35,-87.5,3605.0,35962.5
46520,13.42,80.03,1001.38,-367.5,2310.0,34072.5
46549,17.08,81.74,1000.16,1085.0,1207.5,38430.0
46578,26.6,85.52,997.84,787.5,507.5,45010.0
46607,50.26,93.45,996.62,-3955.0,297.5,33215.0
46636,79.06,104.43,998.94,-2292.5,-1872.5,11707.5
46665,103.7,115.9,1001.86,1190.0,-2065.0,-2362.5
46694,126.03,126.64,1003.57,-297.5,-1837.5,-13737.5
46723,143.96,134.32,1005.52,1015.0,-3255.0,-26145.0
46752,155.43,138.59,1006.62,3657.5,-6212.5,-33040.0
46781,163.48,141.03,1005.89,2765.0,-6422.5,-38307.5
46810,168.6,142.01,1004.91,1102.5,-6212.5,-44345.0
46839,170.31,141.15,1003.57,1785.0,-8155.0,-48947.5
46868,169.34,139.45,1000.64,-857.5,-7822.5,-52535.0
46897,164.7,136.15,997.35,-5022.5,-6160.0,-56192.5
46926,154.09,129.81,995.64,-5512.5,-5810.0,-56997.5
46955,136.4,120.54,994.18,-4725.0,-3710.0,-52360.0
46984,112.0,109.43,994.06,-6825.0,-262.5,-43487.5
47013,81.25,96.62,998.45,-5530.0,3045.0,-26967.5
47042,49.17,84.91,1003.21,595.0,-350.0,-6335.0
47071,22.45,77.47,1005.52,1540.0,595.0,11357.5
47100,3.66,73.2,1006.99,1610.0,2975.0,23905.0
47129,-8.05,70.64,1007.6,2030.0,3885.0,30380.0
47158,-16.23,68.93,1007.6,4182.5,2835.0,35857.5
47187,-22.2,67.59,1005.65,4690.0,3220.0,43610.0
47216,-24.16,66.73,1002.6,70.0,6317.5,50102.5
47246,-21.35,66.49,1001.13,-700.0,5442.5,53392.5
47275,-14.03,66.61,1001.25,472.5,4007.5,53322.5
47304,-5.12,67.34,1002.23,1837.5,3797.5,52797.5
47333,6.22,69.91,1001.62,3360.0,1277.5,54652.5
47363,27.69,76.25,999.42,-35.0,805.0,45780.0
47392,55.63,84.91,1000.16,-2555.0,2572.5,27090.0
47422,80.89,93.94,1004.55,262.5,1837.5,14560.0
47451,104.43,104.92,1007.23,3377.5,455.0,4935.0
47481,128.34,117.24,1007.11,4060.0,-2537.5,-8435.0
47510,149.45,128.59,1005.65,4165.0,-4322.5,-21297.5
47539,166.04,137.13,1003.57,2590.0,-3850.0,-31885.0
47568,178.12,142.74,1001.5,-280.0,-4182.5,-40617.5
47596,186.17,145.67,999.18,-595.0,-6055.0,-48632.5
47625,189.1,145.79,997.11,-1032.5,-6842.5,-54302.5
47653,186.42,143.23,995.28,-2082.5,-6615.0,-55492.5
47682,179.34,138.84,994.06,-3552.5,-6457.5,-54915.0
47711,167.63,132.49,994.42,-3955.0,-5180.0,-52272.5
47740,151.28,125.29,996.01,-3937.5,-3797.5,-47565.0
47769,130.3,117.36,997.72,-3080.0,-3552.5,-40670.0
47798,105.77,108.7,999.06,-3045.0,-3045.0,-30817.5
47827,77.96,99.31,1000.89,-3132.5,-192.5,-18602.5
47856,47.34,89.3,1002.96,297.5,227.5,-1277.5
47885,19.15,80.15,1003.33,1925.0,1837.5,18445.0
47915,-1.95,73.32,1001.99,1627.5,3132.5,34020.0
47944,-13.79,69.17,1000.77,630.0,4305.0,44555.0
47974,-17.08,67.59,999.79,-262.5,5407.5,49245.0
48003,-16.59,66.86,998.94,-1085.0,4900.0,50610.0
48033,-13.42,66.86,999.18,-1225.0,4515.0,54635.0
48062,-4.39,68.44,999.79,245.0,2800.0,55370.0
48091,9.52,71.13,999.42,717.5,927.5,49122.5
48121,22.45,73.2,997.72,-2520.0,752.5,41492.5
48150,32.82,75.03,996.37,-5950.0,3745.0,39585.0
48179,45.75,78.32,996.62,-7875.0,7682.5,38552.5
48208,64.17,83.69,1000.03,-6422.5,4882.5,29802.5
48237,87.23,91.5,1005.77,2852.5,-5005.0,18270.0
48266,115.17,102.6,1009.18,4532.5,-3640.0,5022.5
48295,142.37,114.31,1010.16,2922.5,-1085.0,-11777.5
48324,163.85,123.22,1010.65,4357.5,-3920.0,-26110.0
48353,180.93,128.59,1010.16,4480.0,-5197.5,-37310.0
48382,192.27,130.3,1008.33,1855.0,-4340.0,-47477.5
48411,196.54,128.83,1005.52,1365.0,-5792.5,-52115.0
48440,195.69,125.66,1001.25,-1365.0,-5407.5,-56035.0
48469,190.08,121.51,997.47,-3937.5,-7700.0,-56385.0
48498,183.12,116.88,995.4,-5740.0,-7332.5,-55947.5
48527,172.02,109.92,994.79,-7980.0,-6212.5,-56787.5
48556,152.13,100.28,996.5,-7630.0,-5862.5,-51170.0
48584,126.15,89.06,1000.16,-5320.0,-4900.0,-39077.5
48613,95.89,76.74,1006.38,-2065.0,-3115.0,-24832.5
48642,63.2,64.54,1013.82,5425.0,-2012.5,-3517.5
48671,34.89,55.63,1017.97,10640.0,-577.5,19792.5
48700,16.23,51.12,1016.99,9625.0,2905.0,36277.5
48729,6.34,50.02,1013.58,5915.0,5530.0,46095.0
48758,1.83,50.02,1011.75,5285.0,7700.0,53725.0
48788,3.42,51.48,1009.43,7560.0,6387.5,58800.0
48817,12.08,54.9,1005.52,3902.5,5372.5,54967.5
48847,23.3,58.8,1001.74,1032.5,3850.0,48422.5
48876,34.16,62.46,998.57,-1802.5,5512.5,44782.5
48906,45.14,65.64,995.89,-5180.0,8260.0,42997.5
48935,58.32,68.56,995.03,-6230.0,4375.0,38307.5
48965,75.15,72.71,997.23,-2747.5,1540.0,32025.0
48994,96.75,79.67,1000.16,507.5,35.0,24972.5
49024,124.07,89.79,1002.23,1435.0,-1050.0,10867.5
49053,151.28,101.26,1002.72,1032.5,-437.5,-7122.5
49082,173.12,111.02,1002.6,525.0,-1050.0,-21647.5
49111,189.1,117.85,1002.35,105.0,-1260.0,-33302.5
49140,199.84,121.39,1001.62,52.5,-3115.0,-42385.0
49169,205.69,122.37,1000.03,-262.5,-3850.0,-49052.5
49197,205.69,121.76,997.72,-1505.0,-4392.5,-51782.5
49226,200.57,119.56,995.4,-3290.0,-5827.5,-50050.0
49255,192.88,116.02,993.57,-3727.5,-6825.0,-47652.5
49284,183.24,111.02,992.1,-5285.0,-5652.5,-46305.0
49313,168.73,104.07,993.32,-8820.0,-1890.0,-44695.0
49342,147.01,94.55,997.72,-5897.5,-2397.5,-38762.5
49371,120.54,83.94,1002.11,-2100.0,-3062.5,-26967.5
49400,91.99,73.44,1005.89,-875.0,1697.5,-11830.0
49429,64.42,64.66,1008.7,2695.0,717.5,4865.0
49459,42.33,58.19,1009.79,3990.0,2957.5,18830.0
49488,25.99,53.68,1009.55,4130.0,4322.5,29732.5
49518,14.64,51.24,1009.06,4812.5,2485.0,39567.5
49547,10.98,51.48,1007.96,5127.5,3517.5,47600.0
49577,15.01,53.56,1005.52,2240.0,5740.0,46462.5
49606,19.52,55.39,1003.33,-70.0,3762.5,42787.5
49635,24.4,57.34,1002.72,2520.0,735.0,45937.5
49664,34.53,60.02,1001.38,2642.5,1260.0,44695.0
49693,46.12,62.83,999.18,-840.0,2607.5,38657.5
49722,56.61,66.25,998.94,-262.5,612.5,39252.5
49751,74.91,72.71,999.42,1907.5,-2187.5,37100.0
49780,104.68,82.72,1000.64,175.0,-3447.5,22277.5
49809,137.74,94.43,1002.35,1435.0,-2677.5,1155.0
49838,164.82,105.41,1002.47,2870.0,-4725.0,-15925.0
49867,184.59,113.22,1000.77,595.0,-3447.5,-27142.5
49896,198.37,117.85,999.18,-2240.0,-857.5,-35910.0
49925,206.91,119.56,997.84,-3167.5,-3657.5,-43085.0
49954,210.45,118.95,997.59,-3902.5,-3237.5,-47670.0
49983,208.25,117.0,997.35,-2887.5,-2257.5,-48317.5
50012,202.03,114.56,996.37,-2362.5,-4217.5,-46812.5
50041,194.1,111.63,995.15,-2030.0,-5005.0,-45570.0
50070,183.49,107.24,993.81,-3867.5,-2555.0,-44852.5
50099,167.75,100.89,993.2,-6632.5,1260.0,-42017.5
50128,146.4,92.84,993.93,-6562.5,157.5,-36277.5
50157,120.78,83.33,996.01,-4585.0,192.5,-25760.0
50186,93.09,73.69,998.45,-2852.5,2520.0,-11567.5
50215,66.25,64.78,1000.4,-945.0,525.0,2415.0
50244,43.31,57.83,1001.86,140.0,-87.5,17167.5
50273,27.33,53.19,1003.33,2187.5,840.0,29907.5
50302,18.79,51.0,1004.06,3815.0,1312.5,38010.0
50331,15.25,50.02,1004.18,3972.5,3972.5,43487.5
50360,15.86,50.51,1003.21,3482.5,3955.0,47442.5
50389,20.62,51.97,1002.11,1557.5,4462.5,47512.5
50418,26.23,52.83,1001.86,2152.5,4410.0,47512.5
50447,31.96,53.07,1001.5,3325.0,2765.0,49315.0
50476,41.48,54.29,1000.28,4007.5,525.0,48615.0
50506,58.32,58.68,998.33,2992.5,-17.5,43347.5
50535,82.96,66.25,997.96,-875.0,1540.0,33022.5
50565,112.36,76.37,1000.16,-1067.5,2275.0,17010.0
50594,141.28,87.72,1002.11,2030.0,-472.5,437.5
50624,165.92,98.58,1000.89,2257.5,-2660.0,-14472.5
50653,185.07,106.87,998.2,227.5,-2887.5,-27440.0
50682,198.13,111.87,995.64,-2975.0,-1697.5,-36925.0
50711,206.06,113.7,995.52,-4270.0,-2117.5,-44432.5
50739,209.23,112.97,997.23,-2362.5,-2940.0,-48825.0
50768,209.35,110.78,998.94,-1890.0,-2730.0,-51415.0
50796,206.42,107.73,1000.16,-2205.0,-2275.0,-53917.5
50825,200.2,103.46,1000.16,-1225.0,-4060.0,-55580.0
50853,189.71,97.48,998.08,-3745.0,-157.5,-56350.0
50882,171.78,89.3,995.03,-5337.5,-1732.5,-54792.5
50911,145.67,78.81,993.93,-6860.0,-4585.0,-46287.5
50940,114.19,66.0,997.23,-8067.5,927.5,-29977.5
50969,81.13,53.07,1002.84,-2940.0,3255.0,-10045.0
50998,52.09,43.07,1007.11,1820.0,2397.5,9432.5
51027,30.38,36.6,1009.55,3150.0,4462.5,24132.5
51057,15.86,32.7,1010.4,5302.5,3832.5,33600.0
51086,6.71,30.74,1009.67,6037.5,3027.5,39095.0
51116,0.24,30.13,1007.35,4672.5,4812.5,45447.5
51145,-3.05,30.01,1004.79,2415.0,7210.0,52255.0
51175,-1.83,30.5,1002.72,1470.0,6300.0,55510.0
51204,4.03,32.45,1001.62,1417.5,4497.5,56910.0
51233,15.62,35.99,1001.01,210.0,4777.5,53795.0
51262,28.79,40.5,1000.89,-1067.5,3797.5,47285.0
51291,42.09,46.12,1001.38,735.0,875.0,43662.5
51321,60.27,53.68,1001.74,647.5,1645.0,38150.0
51350,82.72,62.95,1001.99,-2397.5,3360.0,25900.0
51379,105.53,73.32,1003.82,-1575.0,-105.0,12075.0
51408,127.37,83.94,1006.38,1137.5,-2100.0,-1452.5
51437,145.55,93.21,1007.84,1540.0,-1820.0,-13125.0
51466,159.45,100.28,1008.7,2170.0,-2957.5,-22487.5
51495,168.85,104.92,1008.94,3045.0,-4445.0,-29697.5
51524,174.83,107.6,1009.18,2467.5,-3797.5,-34422.5
51553,178.0,108.58,1009.31,2905.0,-4532.5,-39672.5
51582,177.63,107.97,1009.18,3850.0,-5932.5,-42980.0
51611,173.97,106.51,1008.45,3867.5,-5617.5,-44240.0
51640,168.12,104.68,1006.5,3010.0,-5530.0,-44590.0
51669,159.58,102.97,1004.06,1750.0,-5652.5,-44905.0
51698,148.6,101.26,1001.38,175.0,-5810.0,-44170.0
51726,133.22,98.21,999.42,-2012.5,-4585.0,-42105.0
51755,112.0,93.33,997.96,-3500.0,-4077.5,-34335.0
51784,87.11,86.62,997.72,-5687.5,-1680.0,-23835.0
51813,60.51,77.96,1000.64,-5757.5,665.0,-13160.0
51842,32.21,68.44,1005.4,-875.0,210.0,2695.0
51872,8.17,61.73,1008.57,2082.5,2537.5,22155.0
51901,-5.49,59.29,1009.31,2695.0,4900.0,34667.5
51930,-10.49,59.17,1008.94,3447.5,4655.0,38535.0
51959,-12.44,59.78,1007.84,3832.5,3920.0,40775.0
51988,-12.69,60.63,1005.65,2432.5,4375.0,45185.0
52017,-8.78,62.1,1002.84,455.0,5425.0,47057.5
52047,-2.56,64.17,1000.4,-192.5,3832.5,45675.0
52076,4.64,66.61,998.45,17.5,1540.0,46760.0
52106,15.49,69.91,995.4,-1137.5,1890.0,45972.5
52135,30.5,73.93,991.74,-5565.0,2012.5,38867.5
52165,48.07,78.69,991.86,-9397.5,2852.5,33145.0
52194,71.25,85.64,997.47,-8837.5,5792.5,25865.0
52223,99.19,94.79,1006.26,-3850.0,3290.0,9957.5
52252,125.05,104.68,1013.33,3920.0,-2660.0,-6562.5
52281,145.3,113.22,1016.26,6177.5,-3132.5,-17167.5
52310,161.28,119.56,1016.14,6772.5,-4147.5,-26250.0
52338,172.75,123.22,1014.19,6300.0,-6265.0,-35070.0
52367,179.34,125.17,1011.38,5215.0,-7017.5,-40145.0
52396,182.27,125.9,1007.96,3692.5,-7192.5,-43102.5
52425,183.0,125.42,1004.79,3272.5,-8820.0,-47215.0
52454,179.83,123.95,1001.25,2380.0,-9572.5,-49700.0
52483,172.26,121.02,997.84,-140.0,-9082.5,-49630.0
52512,159.82,116.14,995.52,-2712.5,-7822.5,-48317.5
52541,141.52,109.07,994.67,-5197.5,-6125.0,-43925.0
52570,117.61,100.28,994.06,-5477.5,-4742.5,-35245.0
52599,90.04,89.91,994.67,-6685.0,-4200.0,-24360.0
52628,59.05,78.08,999.18,-5897.5,-192.5,-6685.0
52658,30.62,67.83,1005.52,-1820.0,2765.0,15995.0
52687,12.44,62.22,1009.79,2082.5,4095.0,31167.5
52716,3.9,60.15,1011.99,4165.0,6142.5,38955.0
52745,0.85,59.78,1012.6,5372.5,6685.0,43085.0
52774,0.37,60.51,1011.62,5232.5,5740.0,46567.5
52803,2.93,61.98,1009.43,4130.0,5495.0,51485.0
52832,10.98,64.66,1007.23,2222.5,6755.0,53235.0
52861,23.42,68.2,1004.18,-525.0,4742.5,49192.5
52890,38.06,72.1,1003.21,-3727.5,4252.5,43207.5
52919,54.53,77.59,1004.3,-910.0,3097.5,38885.0
52948,76.37,85.4,1005.04,437.5,1400.0,30730.0
52978,102.36,95.16,1006.01,367.5,1960.0,16292.5
53007,127.37,105.65,1007.6,1680.0,0.0,2275.0
53037,149.94,114.92,1008.94,2380.0,-52.5,-10255.0
53066,168.36,122.24,1009.31,3150.0,-1190.0,-21507.5
53095,181.05,127.12,1008.33,3255.0,-3325.0,-30625.0
53124,189.1,130.05,1006.38,2800.0,-4637.5,-37170.0
53153,192.76,131.03,1003.21,1785.0,-6300.0,-43242.5
53182,191.78,130.78,998.94,665.0,-8435.0,-45202.5
53211,188.12,130.54,994.3,-1855.0,-8347.5,-45272.5
53240,182.02,129.32,990.64,-5950.0,-7157.5,-47040.0
53268,170.07,125.42,990.27,-9362.5,-3482.5,-45780.0
53297,151.4,118.34,992.35,-7857.5,-3710.0,-40845.0
53325,127.61,108.95,995.15,-5092.5,-6370.0,-33022.5
53354,100.28,98.21,998.2,-5302.5,-3430.0,-21192.5
53383,71.0,87.11,1004.3,-3167.5,1505.0,-3850.0
53412,46.97,78.81,1011.14,6230.0,-682.5,14647.5
53441,33.67,75.4,1014.06,9205.0,525.0,24307.5
53471,26.35,75.15,1014.06,9082.5,1540.0,29050.0
53500,22.57,76.86,1013.09,10080.0,1312.5,35280.0
53529,24.16,79.91,1010.04,8522.5,5092.5,39392.5
53558,29.4,83.45,1005.16,3797.5,7280.0,36907.5
53588,32.33,85.64,1000.52,1102.5,5057.5,34860.0
53617,33.31,86.74,997.72,1102.5,4182.5,40617.5
53647,38.8,88.82,995.03,2205.0,3640.0,45395.0
53676,50.51,92.48,990.76,-805.0,3465.0,42070.0
53705,66.61,97.36,988.44,-5092.5,4742.5,35070.0
53734,85.89,103.82,989.91,-5705.0,5582.5,25322.5
53763,107.36,112.0,994.54,-3955.0,4147.5,15995.0
53792,131.27,121.76,999.91,175.0,1942.5,4252.5
53821,154.45,131.76,1002.84,3220.0,-1242.5,-9607.5
53850,173.24,139.93,1003.33,3412.5,-1907.5,-20982.5
53879,186.54,145.3,1002.72,3202.5,-3132.5,-30975.0
53908,194.47,147.99,1001.13,2625.0,-4585.0,-37397.5
53937,198.74,148.96,998.81,1400.0,-5040.0,-42052.5
53966,201.06,148.84,995.03,-245.0,-6790.0,-46882.5
53995,200.45,147.62,990.64,-4200.0,-7472.5,-52710.0
54024,194.71,143.96,987.71,-5967.5,-6177.5,-54775.0
54053,183.12,138.1,986.0,-6842.5,-6072.5,-53742.5
54082,165.07,129.44,986.86,-9502.5,-2222.5,-48160.0
54111,140.42,118.58,992.96,-6212.5,1890.0,-36295.0
54140,112.48,107.48,1000.16,1190.0,-122.5,-22435.0
54169,82.96,97.84,1004.79,3605.0,1365.0,-7822.5
54199,54.41,90.4,1007.48,5547.5,1697.5,10307.5
54228,32.09,85.89,1008.21,5862.5,3902.5,26530.0
54257,17.93,83.33,1008.09,5740.0,6440.0,37345.0
54286,10.13,81.86,1007.35,7595.0,5197.5,42805.0
54315,6.71,81.62,1004.79,7297.5,4112.5,45832.5
54344,5.73,82.84,1000.64,5355.0,4182.5,50137.5
54373,9.64,85.4,995.52,2327.5,6037.5,54460.0
54403,20.98,89.79,990.52,-1365.0,6230.0,51380.0
54432,35.87,95.28,987.1,-2835.0,2100.0,43312.5
54461,50.39,101.02,984.05,-3832.5,-192.5,37660.0
54490,66.0,106.75,980.51,-9187.5,5792.5,32672.5
54519,85.4,112.85,980.39,-14262.5,11147.5,24920.0
54548,108.82,118.95,987.22,-11620.0,5267.5,10465.0
54577,131.03,125.05,998.69,-2625.0,70.0,-2905.0
54606,149.21,131.27,1006.99,4480.0,-1820.0,-11532.5
54635,164.7,137.25,1009.55,5985.0,-3342.5,-21385.0
54664,176.41,141.64,1008.7,5600.0,-5425.0,-30485.0
54693,184.22,144.2,1006.5,3867.5,-4812.5,-36680.0
54722,188.49,144.94,1004.43,1855.0,-4777.5,-42490.0
54750,188.73,143.84,1002.72,1767.5,-7105.0,-47967.5
54779,183.12,141.4,1000.16,2870.0,-8820.0,-48632.5
54807,174.34,138.59,996.01,560.0,-7437.5,-45255.0
54836,164.46,135.18,992.84,-3062.5,-5197.5,-44135.0
54865,151.77,129.81,991.86,-3972.5,-6020.0,-42542.5
54894,133.83,122.0,994.18,-5932.5,-2537.5,-37135.0
54923,109.68,112.0,1000.28,-2047.5,-1732.5,-25795.0
54952,81.86,101.99,1005.4,4007.5,-2940.0,-9537.5
54981,56.36,94.31,1006.74,4095.0,-700.0,6912.5
55011,37.82,90.28,1007.11,2992.5,2730.0,18970.0
55040,26.6,89.06,1007.72,4882.5,2520.0,25795.0
55070,20.74,89.91,1006.74,5775.0,3290.0,29575.0
55099,18.06,91.5,1003.94,3447.5,4952.5,31867.5
55129,16.71,93.7,1000.64,1960.0,5302.5,35612.5
55158,18.3,96.14,996.74,280.0,5897.5,38990.0
55188,23.67,99.43,993.81,-2187.5,5810.0,39025.0
55217,31.72,103.46,992.23,-2012.5,3937.5,37975.0
55246,41.72,107.73,990.52,-3710.0,3850.0,35805.0
55275,51.73,111.26,989.66,-5705.0,3692.5,30572.5
55304,59.54,113.95,989.66,-4077.5,52.5,29855.0
55333,70.39,117.73,990.15,-3465.0,-3570.0,33740.0
55362,92.84,123.83,991.74,-3727.5,-4007.5,24955.0
55391,119.07,130.91,995.15,-4952.5,-1732.5,4235.0
55420,137.86,136.27,1001.13,-1540.0,-1365.0,-7192.5
55449,152.99,140.54,1006.38,3395.0,-1067.5,-12827.5
55478,167.26,144.45,1008.21,4672.5,-2030.0,-23730.0
55507,175.8,147.01,1007.72,4777.5,-3185.0,-30222.5
55536,180.68,148.35,1006.01,4305.0,-2642.5,-32305.0
55565,183.24,148.84,1003.08,3377.5,-3185.0,-36767.5
55594,182.15,148.47,998.94,2887.5,-4917.5,-37467.5
55623,179.83,147.62,994.79,-805.0,-2100.0,-39147.5
55652,175.56,145.67,992.35,-2852.5,-2905.0,-42297.5
55680,167.99,142.37,992.35,-2590.0,-4550.0,-43470.0
55709,156.65,138.23,992.23,-2467.5,-3675.0,-40757.5
55737,141.15,133.22,991.74,-4515.0,-1890.0,-37065.0
55766,120.54,126.51,992.96,-4952.5,-350.0,-29610.0
55795,95.65,118.46,996.62,-1995.0,770.0,-16660.0
55824,71.98,111.26,1000.52,1505.0,2327.5,-2345.0
55853,51.73,106.14,1002.84,3080.0,3570.0,8470.0
55882,34.89,102.97,1003.21,3640.0,3307.5,19302.5
55911,23.06,101.26,1002.35,2555.0,6037.5,28262.5
55940,16.84,101.02,1000.77,1207.5,6667.5,33460.0
55969,14.64,101.87,999.91,350.0,5985.0,35962.5
55999,15.37,103.58,1000.16,1750.0,5687.5,38185.0
56028,18.79,106.26,998.81,2887.5,3517.5,39445.0
56058,25.01,109.8,996.25,822.5,2765.0,38290.0
56087,31.84,113.34,994.06,52.5,2170.0,37677.5
56116,40.99,117.24,991.13,-122.5,-227.5,36767.5
56145,54.41,121.76,987.96,-3745.0,962.5,31027.5
56174,68.69,125.78,987.35,-7455.0,1855.0,24570.0
56203,83.2,129.08,991.37,-5477.5,1715.0,21350.0
56232,101.14,133.35,996.86,105.0,-192.5,13335.0
56261,120.17,139.45,1000.4,2170.0,-3395.0,437.5
56290,135.79,145.55,1002.35,1610.0,-2187.5,-9887.5
56319,147.5,150.18,1003.69,2240.0,-1382.5,-16712.5
56348,157.14,153.23,1003.57,3937.5,-4375.0,-23852.5
56377,163.48,155.18,1001.5,3097.5,-4515.0,-29960.0
56406,165.68,155.79,998.69,630.0,-2555.0,-32060.0
56435,165.8,155.43,996.37,-980.0,-2555.0,-34492.5
56464,164.46,154.45,995.28,-752.5,-4270.0,-37922.5
56493,160.92,152.74,994.54,-1050.0,-4410.0,-39620.0
56522,154.7,150.55,993.93,-2222.5,-3237.5,-40582.5
56551,145.06,147.62,993.32,-1855.0,-3990.0,-39532.5
56580,131.27,143.72,991.98,-3710.0,-2922.5,-37432.5
56608,112.36,137.86,993.08,-5355.0,-87.5,-30415.0
56637,89.3,130.42,997.96,-1085.0,3097.5,-18130.0
56666,65.15,123.34,1002.47,4200.0,2187.5,-4252.5
56695,43.92,118.1,1004.3,5215.0,1330.0,8645.0
56724,27.57,115.05,1003.45,4252.5,3185.0,19110.0
56753,16.47,113.7,1000.89,1890.0,4445.0,25795.0
56782,9.52,112.73,998.81,87.5,5285.0,30065.0
56812,5.12,111.63,997.35,-1120.0,5530.0,33337.5
56841,3.05,110.78,996.98,-1382.5,6422.5,37362.5
56870,4.39,111.02,996.74,-1015.0,6755.0,39865.0
56899,7.32,111.51,995.52,-1697.5,6527.5,39532.5
56929,9.76,111.51,993.69,-3535.0,5932.5,41457.5
56958,15.01,111.51,992.1,-5652.5,7332.5,43207.5
56988,24.89,111.87,991.62,-6825.0,8137.5,38850.0
57017,37.82,112.73,994.06,-5197.5,3850.0,31762.5
57047,52.22,115.41,998.45,-1207.5,175.0,25480.0
57076,69.05,120.9,1001.62,910.0,-927.5,20002.5
57105,90.28,128.83,1003.45,1050.0,-770.0,9222.5
57134,111.87,137.62,1005.28,1295.0,-1907.5,-5267.5
57163,129.32,145.06,1006.74,2467.5,-2572.5,-16520.0
57192,142.98,150.18,1007.72,3167.5,-3360.0,-25952.5
57220,152.87,153.11,1007.72,4112.5,-5495.0,-34457.5
57249,158.6,153.96,1006.74,3867.5,-6405.0,-40215.0
57278,160.19,153.23,1005.52,2975.0,-5932.5,-43907.5
57307,157.26,151.04,1004.3,2782.5,-6667.5,-45955.0
57336,151.28,147.86,1003.08,2170.0,-6720.0,-46427.5
57365,142.25,143.96,1001.86,367.5,-5792.5,-46602.5
57394,129.32,139.32,1002.23,-140.0,-4690.0,-43435.0
57423,112.61,134.44,1002.96,1575.0,-4252.5,-37187.5
57452,92.48,129.08,1002.35,700.0,-2887.5,-29680.0
57481,69.05,122.85,1001.86,-875.0,-227.5,-19110.0
57510,43.19,115.78,1002.35,-735.0,1487.5,-4777.5
57540,19.4,109.31,1002.35,1382.5,962.5,10657.5
57569,1.95,104.8,1000.64,-227.5,3045.0,21910.0
57598,-9.39,102.72,998.69,-1102.5,4147.5,29592.5
57627,-15.37,102.48,997.11,-1242.5,4357.5,35840.0
57656,-15.37,103.46,996.25,-2957.5,5722.5,37677.5
57685,-12.69,104.92,996.25,-2660.0,4725.0,36312.5
57714,-9.27,106.51,996.74,-1872.5,3307.5,38815.0
57743,-2.68,108.09,996.98,-1855.0,4480.0,39340.0
57772,5.86,109.31,996.25,-1960.0,3342.5,35175.0
57801,12.93,110.04,994.67,-3272.5,2065.0,32147.5
57830,20.5,111.02,994.18,-5372.5,4147.5,32445.0
57859,33.43,113.7,995.89,-5652.5,3447.5,29260.0
57888,51.0,118.1,1000.16,-4340.0,2275.0,19827.5
57917,68.81,124.07,1005.04,-52.5,-455.0,10727.5
57946,87.35,131.27,1007.96,1750.0,-962.5,2012.5
57976,105.65,138.35,1009.43,2012.5,-1050.0,-9607.5
58005,121.02,143.72,1009.92,3622.5,-3640.0,-19705.0
58034,133.47,147.5,1009.79,4060.0,-4952.5,-28052.5
58063,142.37,149.69,1008.82,3815.0,-5390.0,-34842.5
58091,146.64,150.06,1007.23,3990.0,-7630.0,-39812.5
58120,146.77,149.08,1005.16,3710.0,-9415.0,-42595.0
58148,143.72,147.5,1003.33,1137.5,-7315.0,-42350.0
58177,138.23,145.06,1003.08,-787.5,-5687.5,-41562.5
58206,130.05,141.64,1004.55,1242.5,-6212.5,-41072.5
58235,117.36,137.13,1005.16,1627.5,-5775.0,-38325.0
58264,99.92,131.52,1005.04,700.0,-4235.0,-32130.0
58293,79.3,125.17,1005.04,437.5,-1872.5,-23502.5
58322,56.49,118.83,1004.55,35.0,-682.5,-12722.5
58352,33.31,112.61,1004.67,-630.0,1505.0,472.5
58381,13.18,107.24,1004.79,245.0,2817.5,13912.5
58411,-1.22,103.46,1003.69,-122.5,3972.5,23327.5
58440,-10.74,100.89,1002.11,-1277.5,5547.5,28927.5
58469,-17.08,98.82,1000.16,-2205.0,6107.5,33827.5
58498,-20.98,96.62,998.69,-4147.5,7490.0,38587.5
58528,-20.98,95.4,998.45,-3955.0,7175.0,43452.5
58557,-15.49,95.53,999.06,-3167.5,6510.0,44835.0
58586,-6.83,96.38,999.42,-3815.0,6177.5,41422.5
58615,2.93,98.09,1000.16,-4147.5,5705.0,40302.5
58644,16.47,101.5,1001.99,-4130.0,6510.0,38220.0
58673,34.53,107.12,1004.06,-1592.5,3377.5,30747.5
58702,56.12,115.05,1005.52,420.0,-1120.0,20125.0
58731,80.15,124.2,1006.5,787.5,-1610.0,8540.0
58760,103.21,132.74,1007.23,1575.0,-1925.0,-4865.0
58789,121.76,138.96,1006.62,2485.0,-4725.0,-16397.5
58818,134.81,142.62,1005.52,1347.5,-5005.0,-24360.0
58847,143.59,143.96,1005.04,1085.0,-5617.5,-30310.0
58876,148.6,143.72,1005.16,1470.0,-6632.5,-35087.5
58905,149.82,142.25,1005.52,1312.5,-6947.5,-38360.0
58934,147.38,139.69,1005.89,2047.5,-7787.5,-39357.5
58963,142.25,136.88,1005.52,1190.0,-6632.5,-39707.5
58992,134.2,133.35,1005.65,-122.5,-4252.5,-38885.0
59021,123.59,129.08,1006.5,647.5,-4182.5,-37450.0
59050,110.29,124.32,1006.99,1050.0,-4147.5,-35857.5
59078,92.72,119.32,1006.74,472.5,-1977.5,-29312.5
59107,71.98,114.19,1005.89,-262.5,-560.0,-19950.0
59136,50.02,108.58,1005.77,-752.5,175.0,-9135.0
59165,29.16,103.33,1006.26,542.5,1365.0,3482.5
59194,11.96,99.31,1006.26,682.5,3220.0,15120.0
59223,-0.61,96.87,1005.04,490.0,4742.5,24167.5
59252,-7.81,95.89,1003.08,-175.0,5477.5,30467.5
59281,-10.61,95.89,1000.89,-1750.0,6825.0,33232.5
59310,-11.96,95.89,999.42,-2467.5,5705.0,35192.5
59339,-11.22,96.38,999.55,-2100.0,4392.5,39707.5
59368,-4.27,98.09,1000.77,-1732.5,5145.0,40460.0
59397,5.61,100.41,1001.62,-1050.0,3325.0,34247.5
59426,13.3,102.24,1001.62,-1785.0,2275.0,31132.5
59455,20.62,103.94,1001.01,-2450.0,3062.5,30520.0
59484,30.26,106.14,1000.64,-2852.5,2660.0,27387.5
59513,41.24,109.07,1001.01,-2590.0,1365.0,22557.5
59542,52.95,112.85,1002.23,-1750.0,315.0,19232.5
59572,68.93,118.71,1004.3,-402.5,-385.0,14647.5
59601,89.91,126.27,1006.38,402.5,-682.5,2450.0
59630,108.58,133.1,1008.09,1522.5,-2572.5,-11235.0
59659,121.76,138.1,1009.31,2397.5,-3237.5,-18550.0
59687,132.25,140.91,1010.4,2502.5,-3640.0,-25200.0
59716,139.57,142.01,1011.87,3342.5,-4725.0,-31377.5
59745,143.35,141.89,1012.72,4725.0,-5547.5,-35490.0
59774,144.08,140.91,1012.36,4690.0,-4952.5,-37292.5
59803,142.98,139.57,1011.14,4375.0,-4952.5,-39952.5
59832,138.84,137.37,1009.31,3832.5,-5862.5,-42857.5
59861,130.54,134.2,1007.23,2555.0,-4795.0,-42490.0
59890,117.73,130.54,1005.16,1102.5,-3832.5,-39305.0
59919,100.77,126.03,1003.57,577.5,-3797.5,-33372.5
59948,80.28,120.78,1002.6,-105.0,-3045.0,-24815.0
59977,57.83,115.17,1002.11,-140.0,-1365.0,-14000.0
60006,35.14,110.04,1001.62,910.0,-857.5,-2502.5
60035,14.03,106.14,1000.89,-245.0,1417.5,11515.0
60065,-1.1,103.7,1000.03,-962.5,3622.5,23012.5
60094,-9.27,102.36,999.42,-1015.0,3710.0,28507.5
60123,-14.15,101.75,998.81,-892.5,4200.0,33215.0
60152,-15.86,101.87,997.59,-1767.5,4445.0,38045.0
60181,-13.66,102.11,996.62,-2870.0,4445.0,40250.0
60210,-9.15,101.99,995.52,-3570.0,3587.5,39900.0
60239,-3.29,101.99,994.3,-4690.0,3132.5,40652.5
60268,6.59,103.21,993.2,-5582.5,4095.0,39882.5
60297,20.01,105.41,991.49,-7087.5,4725.0,34177.5
60326,34.04,108.09,990.64,-9187.5,2275.0,28962.5
60355,51.36,111.75,993.57,-8067.5,-437.5,22872.5
60384,72.22,116.51,999.18,-6002.5,1540.0,12127.5
60413,92.11,121.63,1005.52,-1155.0,-560.0,770.0
60443,109.31,126.64,1009.43,2170.0,-2695.0,-8575.0
60472,123.95,130.66,1011.5,1522.5,-1172.5,-17097.5
60501,135.18,132.74,1013.7,3062.5,-2520.0,-24605.0
60530,143.23,132.98,1014.8,5547.5,-5372.5,-29925.0
60558,148.72,132.49,1014.19,5040.0,-4935.0,-34125.0
60587,151.04,131.03,1012.6,3745.0,-4550.0,-38097.5
60615,148.35,128.34,1010.65,3500.0,-6142.5,-40145.0
60644,141.52,125.42,1008.21,3412.5,-6982.5,-38325.0
60672,132.74,122.98,1005.04,1627.5,-6160.0,-35805.0
60701,122.73,120.41,1003.45,-1767.5,-4480.0,-34317.5
60729,109.31,116.27,1005.04,-1767.5,-3185.0,-31920.0
60758,90.77,111.02,1007.6,455.0,-3185.0,-24762.5
60787,69.17,104.8,1009.92,140.0,157.5,-14647.5
60816,45.87,97.72,1012.36,2082.5,2240.0,-2712.5
60845,23.91,91.26,1013.7,4217.5,2520.0,10902.5
60875,6.59,86.25,1013.21,4637.5,4707.5,23065.0
60904,-5.49,82.72,1011.14,4497.5,5180.0,32532.5
60934,-11.96,80.52,1008.45,4427.5,4445.0,38220.0
60963,-13.3,79.79,1005.4,3850.0,3675.0,41457.5
60993,-10.49,81.01,1002.11,1207.5,6247.5,44362.5
61022,-3.78,82.96,999.06,-1505.0,7630.0,44415.0
61051,5.98,85.03,996.86,-2607.5,6125.0,41527.5
61080,18.42,88.08,995.76,-2642.5,4585.0,38167.5
61109,33.79,92.6,996.25,-2362.5,3482.5,33617.5
61138,53.31,99.43,998.08,-612.5,1452.5,28332.5
61167,77.84,108.95,999.79,-245.0,875.0,17972.5
61196,102.97,119.32,1001.38,-1312.5,875.0,4060.0
61225,124.56,128.59,1003.08,542.5,-1627.5,-7665.0
61254,142.74,135.79,1003.45,1610.0,-3517.5,-17500.0
61283,157.14,140.79,1003.08,857.5,-3780.0,-26897.5
61312,166.53,143.35,1002.84,1802.5,-6177.5,-33722.5
61341,172.39,143.96,1001.86,2082.5,-7420.0,-38465.0
61370,174.09,142.98,999.67,1400.0,-8400.0,-42647.5
61399,171.78,141.28,997.35,-752.5,-8522.5,-43890.0
61428,167.14,138.96,996.86,-2695.0,-7262.5,-45010.0
61457,159.33,135.18,998.81,-2957.5,-6282.5,-46182.5
61486,145.67,129.69,1002.47,-1802.5,-5372.5,-43890.0
61515,126.27,122.98,1006.26,-70.0,-3185.0,-36942.5
61543,102.72,115.9,1009.43,1470.0,-682.5,-26390.0
61572,78.45,109.43,1011.26,3395.0,1050.0,-13895.0
61601,57.34,104.19,1011.26,5162.5,2817.5,-3797.5
61630,39.16,100.77,1008.7,5390.0,2537.5,3990.0
61659,24.64,100.16,1005.28,4690.0,1575.0,14560.0
61688,16.71,102.36,1001.99,3500.0,4620.0,22610.0
61717,14.4,105.65,997.23,1242.5,4410.0,24447.5
61746,12.57,107.85,992.84,-2852.5,4130.0,24027.5
61775,10.0,109.19,990.64,-4655.0,4917.5,29260.0
61804,11.83,111.26,990.15,-5057.5,5005.0,32882.5
61833,16.96,113.46,990.64,-5407.5,4567.5,30817.5
61862,20.74,115.41,991.01,-3587.5,2117.5,31710.0
61891,26.6,117.85,990.76,-3675.0,1680.0,34545.0
61921,37.33,120.54,991.13,-5582.5,4007.5,30765.0
61950,49.29,123.46,993.32,-3832.5,735.0,23870.0
61980,62.1,127.12,996.01,-2327.5,227.5,19285.0
62009,76.98,132.25,999.3,-2100.0,1207.5,13772.5
62038,93.94,138.47,1003.57,-52.5,385.0,5705.0
62067,111.39,145.18,1007.35,2590.0,-1032.5,-4252.5
62096,126.64,151.28,1009.67,4217.5,-1767.5,-13020.0
62125,138.71,155.92,1009.92,4690.0,-2800.0,-20492.5
62154,147.86,158.84,1009.31,4532.5,-3465.0,-26547.5
62183,153.72,160.06,1008.09,4707.5,-5162.5,-31570.0
62212,156.28,160.31,1006.5,3850.0,-5075.0,-34387.5
62241,156.28,159.58,1005.16,3955.0,-6597.5,-37432.5
62270,152.74,157.5,1003.57,4182.5,-7787.5,-39095.0
62299,145.18,154.57,1001.25,3010.0,-7280.0,-38482.5
62328,134.2,151.04,998.57,1207.5,-7192.5,-36470.0
62357,120.05,147.13,996.74,-1032.5,-5250.0,-32007.5
62386,103.21,142.98,996.01,-2240.0,-3500.0,-26127.5
62415,84.3,138.23,996.62,-2380.0,-1995.0,-18532.5
62444,64.66,132.98,997.96,-3045.0,910.0,-9905.0
62474,45.38,127.73,1000.03,-2047.5,2730.0,-262.5
62503,27.94,123.83,1002.11,-385.0,4410.0,11550.0
62532,14.88,121.15,1002.84,787.5,5565.0,21070.0
62561,5.98,118.83,1002.23,700.0,5617.5,25970.0
62590,-1.1,116.88,1001.13,770.0,5285.0,31605.0
62619,-4.03,116.88,999.91,1242.5,5582.5,38255.0
62648,-0.98,118.58,997.96,-350.0,7140.0,40092.5
62677,3.17,119.8,996.01,-2205.0,6842.5,38762.5
62706,6.71,119.56,994.42,-2170.0,4550.0,40442.5
62735,12.93,119.44,992.35,-3675.0,6037.5,40862.5
62764,22.08,120.29,991.01,-6317.5,6195.0,36977.5
62793,33.06,122.24,992.23,-6125.0,5670.0,34142.5
62822,48.19,126.27,995.52,-3920.0,4077.5,30047.5
62852,67.1,132.25,1000.03,-2065.0,2975.0,21455.0
62881,86.74,139.57,1004.67,1137.5,595.0,11952.5
62911,106.51,147.62,1008.21,3640.0,-910.0,1715.0
62940,124.81,155.31,1009.92,4462.5,-1295.0,-9677.5
62968,138.96,161.28,1010.16,5232.5,-2940.0,-19162.5
62997,149.82,165.19,1009.67,5757.5,-4427.5,-26355.0
63025,157.14,167.51,1008.82,5617.5,-5565.0,-32865.0
63054,160.43,167.99,1007.72,4865.0,-5407.5,-36697.5
63082,160.55,167.26,1006.87,5582.5,-7525.0,-39830.0
63111,157.99,165.55,1005.52,5582.5,-8400.0,-41912.5
63140,152.13,163.24,1003.45,4812.5,-8400.0,-42455.0
63169,143.35,160.8,1000.16,4060.0,-9257.5,-41125.0
63198,132.0,157.99,996.5,752.5,-7315.0,-39777.5
63227,116.14,153.6,994.79,-2082.5,-5897.5,-35962.5
63256,95.53,147.62,995.76,-1207.5,-5565.0,-27562.5
63285,71.25,141.03,996.86,647.5,-4515.0,-15435.0
63314,45.38,134.44,997.47,2712.5,-3640.0,-175.0
63344,23.67,129.08,997.23,1295.0,1767.5,13912.5
63373,8.3,125.66,996.98,175.0,3115.0,22540.0
63403,-2.07,124.32,995.76,157.5,3920.0,29452.5
63432,-6.83,124.44,993.45,-1697.5,5827.5,34335.0
63461,-6.83,125.29,991.13,-4305.0,7367.5,35647.5
63490,-4.27,126.15,990.15,-5232.5,6772.5,36312.5
63519,0.0,127.37,989.91,-4777.5,5600.0,37835.0
63548,6.34,129.08,989.05,-4340.0,4025.0,38447.5
63577,15.86,131.52,986.86,-3360.0,1680.0,37205.0
63606,29.16,134.2,985.27,-7227.5,2677.5,33215.0
63635,43.92,136.27,988.81,-9905.0,5810.0,28910.0
63664,60.27,139.08,996.74,-4637.5,3482.5,25060.0
63693,80.52,144.45,1004.55,1365.0,367.5,17395.0
63723,103.94,152.5,1009.31,4707.5,210.0,6492.5
63752,127.0,160.92,1010.4,5442.5,-437.5,-6930.0
63781,145.79,167.38,1010.04,5337.5,-2555.0,-18847.5
63810,158.97,171.17,1008.7,5950.0,-4637.5,-27125.0
63839,167.63,172.75,1006.38,5057.5,-6335.0,-33477.5
63868,172.26,172.75,1004.3,3412.5,-6352.5,-37642.5
63896,173.24,171.65,1002.35,2415.0,-6440.0,-40145.0
63925,172.02,169.95,1000.4,1785.0,-7822.5,-43452.5
63953,166.65,166.9,998.69,420.0,-7175.0,-46672.5
63982,154.21,162.5,997.23,-525.0,-7140.0,-45447.5
64011,135.3,157.01,996.98,-1855.0,-5880.0,-38640.0
64040,111.51,151.16,998.69,717.5,-5022.5,-27230.0
64069,86.86,145.18,999.79,2975.0,-4847.5,-14927.5
64098,62.46,138.71,999.91,1365.0,-770.0,-3482.5
64127,38.31,132.0,999.91,1557.5,17.5,9905.0
64157,18.79,126.39,999.18,1207.5,1890.0,23730.0
64186,7.56,122.73,998.2,245.0,4655.0,32742.5
64216,2.93,120.66,997.23,35.0,6002.5,36645.0
64245,1.71,119.19,995.4,-1557.5,7140.0,39917.5
64275,4.27,118.71,994.18,-2485.0,8155.0,43347.5
64304,10.74,119.32,992.23,-1802.5,5967.5,43680.0
64334,20.74,120.29,990.64,-4917.5,6370.0,41457.5
64363,31.48,121.63,991.74,-5232.5,6370.0,39025.0
64392,43.68,124.07,993.93,-3377.5,3920.0,38185.0
64421,60.02,128.22,996.74,-2362.5,3920.0,33845.0
64450,78.45,133.96,999.67,-245.0,1452.5,25777.5
64479,97.48,141.15,1001.74,1295.0,-210.0,19967.5
64508,120.29,149.57,1002.96,2257.5,-262.5,10255.0
64537,144.2,157.75,1003.45,3360.0,-2660.0,-5967.5
64566,162.87,164.21,1002.96,2800.0,-3150.0,-18095.0
64595,176.17,168.12,1002.96,2852.5,-2870.0,-25532.5
64624,187.51,169.95,1002.84,4497.5,-5582.5,-33425.0
64653,195.08,170.31,1001.38,3587.5,-6492.5,-41562.5
64682,196.54,169.09,999.42,2082.5,-6650.0,-45535.0
64711,193.49,166.41,997.72,1855.0,-7455.0,-46375.0
64740,186.9,163.48,996.01,1137.5,-8137.5,-47372.5
64769,174.7,159.7,994.79,-630.0,-6825.0,-46182.5
64798,156.77,154.82,993.81,472.5,-7875.0,-39567.5
64828,135.79,150.18,992.47,-612.5,-5722.5,-30082.5
64857,113.7,144.94,992.1,-2835.0,-2327.5,-20545.0
64885,90.04,138.96,993.81,-2117.5,-455.0,-9677.5
64914,66.73,133.71,995.89,-105.0,647.5,4602.5
64943,48.56,130.05,996.5,910.0,2450.0,16677.5
64972,37.09,127.98,995.52,52.5,3990.0,23222.5
65001,29.77,126.88,994.54,-945.0,5250.0,27825.0
65030,25.38,126.39,993.32,-1120.0,5740.0,32900.0
65059,24.64,126.27,991.62,-2502.5,6475.0,34982.5
65088,25.74,125.9,990.76,-3482.5,5792.5,35787.5
65117,29.16,126.15,991.37,-2782.5,5547.5,38675.0
65146,36.84,127.49,992.35,-2380.0,6020.0,39200.0
65175,47.34,129.69,993.45,-2555.0,4427.5,35577.5
65204,60.51,132.98,996.13,-1137.5,3710.0,32742.5
65233,79.3,138.84,999.67,1400.0,2835.0,27422.5
65263,103.58,147.62,1002.23,3692.5,1680.0,14910.0
65292,127.73,157.62,1002.72,4655.0,-437.5,665.0
65322,148.35,166.65,1001.38,4270.0,-1400.0,-11480.0
65351,164.7,173.24,998.94,3430.0,-3325.0,-22242.5
65379,175.8,177.14,996.98,2082.5,-4252.5,-29750.0
65408,183.0,178.85,995.76,2590.0,-6002.5,-35035.0
65437,186.54,178.97,994.18,1592.5,-6895.0,-39620.0
65466,185.81,177.88,992.47,822.5,-7577.5,-41597.5
65495,182.02,176.05,990.52,560.0,-9240.0,-42577.5
65524,175.31,173.73,988.44,-857.5,-9747.5,-42822.5
65553,164.94,170.56,987.96,-2485.0,-7612.5,-40337.5
65582,152.13,166.65,989.42,-2065.0,-6335.0,-36592.5
65611,136.15,162.26,991.98,-2012.5,-3902.5,-32445.0
65640,115.9,156.89,994.67,-962.5,-1785.0,-23922.5
65669,93.45,151.16,997.23,612.5,-577.5,-12932.5
65699,71.98,145.91,998.45,2292.5,332.5,-1522.5
65728,53.44,142.01,997.96,1540.0,2135.0,8802.5
65758,38.43,138.96,997.47,35.0,4497.5,17202.5
65787,26.47,136.4,997.59,595.0,5442.5,24692.5
65817,19.03,135.3,997.47,1225.0,6772.5,32095.0
65846,17.32,136.03,996.25,875.0,8085.0,35087.5
65875,18.54,137.25,994.42,-665.0,7910.0,34230.0
65904,19.64,137.98,993.08,-1802.5,7682.5,35542.5
65933,21.96,138.47,991.62,-1592.5,6912.5,38482.5
65962,26.35,138.47,989.79,-2607.5,5600.0,37607.5
65991,30.38,137.74,988.2,-3657.5,4515.0,38342.5
66020,35.99,137.37,986.98,-3255.0,3202.5,42105.0
66049,48.31,138.96,986.0,-4095.0,2835.0,40442.5
66078,66.49,143.35,986.61,-4847.5,1697.5,33547.5
66107,88.33,149.82,988.44,-2747.5,-2065.0,25725.0
66136,115.17,157.62,990.52,-2467.5,-4427.5,13335.0
66165,141.76,165.43,992.96,-2817.5,-3605.0,-3010.0
66194,162.75,171.53,995.28,-1382.5,-4585.0,-16537.5
66223,178.24,174.7,997.72,122.5,-4882.5,-25847.5
66252,189.34,175.31,999.55,2257.5,-6317.5,-33040.0
66281,196.79,174.46,1000.4,3307.5,-7542.5,-39357.5
66309,200.32,172.63,999.91,2852.5,-7280.0,-44135.0
66338,199.59,169.82,998.69,2572.5,-7350.0,-46847.5
66367,193.74,166.41,996.01,2082.5,-8050.0,-48282.5
66396,183.49,162.14,991.86,-1400.0,-7175.0,-47565.0
66424,169.09,156.65,991.01,-5460.0,-3080.0,-44327.5
66453,150.06,149.82,995.03,-3272.5,-1907.5,-37047.5
66482,127.0,142.62,999.79,910.0,-1225.0,-26740.0
66511,101.75,136.27,1003.08,2362.5,1050.0,-14385.0
66540,76.25,130.54,1005.52,3325.0,2922.5,-490.0
66569,54.9,126.15,1007.96,5355.0,4987.5,14087.5
66598,40.02,123.59,1007.96,7490.0,5775.0,23642.5
66627,30.74,122.73,1004.55,5355.0,7420.0,29382.5
66656,23.91,122.12,999.55,1452.5,9537.5,33127.5
66686,19.89,122.0,995.15,-122.5,9100.0,38762.5
66715,21.23,123.1,991.01,-1592.5,8872.5,41160.0
66745,26.6,124.93,987.1,-4305.0,7770.0,40162.5
66774,34.77,127.86,985.39,-5932.5,7175.0,39725.0
66803,46.12,131.15,985.27,-5635.0,6422.5,37082.5
66832,58.32,134.57,985.27,-5302.5,3237.5,31395.0
66861,70.27,138.84,984.54,-5040.0,1662.5,28455.0
66890,84.79,143.96,983.32,-7000.0,892.5,22592.5
66919,100.77,148.72,986.37,-8172.5,350.0,12932.5
66948,117.0,153.72,993.81,-2502.5,-2572.5,6230.0
66977,135.42,159.82,1000.4,1137.5,-2607.5,-4217.5
67006,152.99,165.68,1005.04,4532.5,-4620.0,-15802.5
67035,168.36,170.19,1006.26,6475.0,-6720.0,-25655.0
67064,181.05,172.51,1005.04,4620.0,-5005.0,-34720.0
67093,188.86,172.39,1002.11,2940.0,-4375.0,-41055.0
67122,191.91,170.43,997.23,1277.5,-7507.5,-44922.5
67151,191.05,167.26,993.08,-2117.5,-6142.5,-48037.5
67180,183.98,162.75,990.88,-2992.5,-6702.5,-49262.5
67209,168.48,156.77,989.18,-3045.0,-7857.5,-44695.0
67237,145.91,149.57,988.69,-4725.0,-5897.5,-34020.0
67266,120.29,141.28,991.37,-5232.5,-2327.5,-20265.0
67294,95.28,132.49,997.23,-3657.5,1557.5,-9607.5
67323,70.27,124.68,1003.33,1855.0,612.5,1470.0
67352,48.8,119.8,1006.74,4480.0,2940.0,15767.5
67381,34.28,117.24,1006.99,5320.0,4725.0,25025.0
67410,24.89,115.78,1005.04,5792.5,4410.0,30450.0
67439,18.06,114.56,1001.86,3535.0,6177.5,35840.0
67468,14.03,113.46,998.69,1400.0,7472.5,42910.0
67497,15.62,112.97,995.89,-17.5,8260.0,45500.0
67526,20.98,112.73,993.45,-1960.0,7770.0,42770.0
67555,26.96,112.85,992.1,-4690.0,10010.0,42595.0
67584,35.14,113.7,991.13,-5967.5,11602.5,41527.5
67613,44.04,115.05,990.4,-8907.5,13387.5,37677.5
67642,55.88,117.36,994.18,-9537.5,11742.5,37555.0
67671,76.01,121.51,1003.33,-1697.5,4270.0,30135.0
67700,101.87,128.83,1011.99,7402.5,-3062.5,16800.0
67728,128.83,138.59,1015.65,10692.5,-3972.5,2555.0
67757,152.74,147.62,1014.55,9642.5,-4620.0,-14542.5
67785,170.07,153.96,1011.87,8820.0,-7542.5,-27545.0
67814,181.78,157.99,1008.57,7227.5,-7910.0,-36575.0
67843,189.59,160.19,1005.52,4655.0,-7770.0,-43715.0
67872,192.27,160.43,1002.72,4445.0,-10097.5,-49805.0
67900,190.08,159.21,998.94,3115.0,-12145.0,-53375.0
67929,184.1,157.5,994.18,-1295.0,-10447.5,-55020.0
67958,174.83,154.45,991.13,-4200.0,-11777.5,-56297.5
67987,160.31,149.08,991.37,-3850.0,-10902.5,-53235.0
68016,140.06,142.13,993.57,-4165.0,-6510.0,-44117.5
68045,115.17,133.71,998.33,-2450.0,-4130.0,-31692.5
68074,87.47,124.44,1004.67,2327.5,-840.0,-17080.0
68103,59.05,116.63,1008.21,6877.5,350.0,-315.0
68132,34.89,112.12,1007.48,6265.0,2275.0,15347.5
68162,17.57,110.65,1004.79,4357.5,4235.0,26687.5
68191,7.56,111.26,1001.38,3027.5,4970.0,33582.5
68220,3.17,112.97,997.23,-542.5,7455.0,35910.0
68249,0.49,114.19,994.18,-3535.0,8680.0,38395.0
68278,-0.12,115.05,992.1,-3937.5,7735.0,43190.0
68307,4.51,116.75,990.15,-5512.5,8242.5,45290.0
68336,12.08,119.44,988.08,-7612.5,10097.5,42805.0
68365,19.28,121.76,986.25,-10115.0,10255.0,43085.0
68394,30.5,124.68,987.35,-11742.5,10832.5,41825.0
68423,46.6,128.59,991.86,-9292.5,7175.0,33635.0
68452,65.64,134.2,998.57,-3360.0,595.0,24640.0
68482,86.13,141.03,1004.91,962.5,-1260.0,14822.5
68511,107.6,148.47,1009.43,4060.0,-2187.5,4322.5
68540,129.81,156.4,1011.5,7175.0,-4812.5,-9012.5
68569,149.08,162.99,1010.4,6475.0,-5740.0,-22872.5
68598,162.14,167.02,1008.21,5617.5,-6790.0,-32077.5
68627,170.8,168.48,1005.52,4707.5,-8505.0,-39252.5
68655,175.56,167.99,1002.72,2870.0,-9170.0,-46270.0
68684,175.31,165.8,1000.64,647.5,-8207.5,-49752.5
68713,170.07,162.02,999.55,-770.0,-7542.5,-50785.0
68742,160.55,157.01,999.42,-1137.5,-7560.0,-49227.5
68771,147.25,151.65,998.94,-717.5,-7507.5,-45360.0
68800,129.56,146.16,998.2,-420.0,-6842.5,-39130.0
68829,106.63,140.18,997.96,52.5,-4585.0,-27860.0
68858,81.37,133.22,998.45,-507.5,-2100.0,-13142.5
68887,57.22,125.9,1000.16,192.5,507.5,-647.5
68917,35.38,119.44,1001.38,1277.5,1855.0,10395.0
68946,16.84,114.56,1001.25,490.0,5792.5,21752.5
68976,2.44,111.51,1000.4,210.0,7700.0,32252.5
69005,-5.73,110.41,999.06,192.5,7997.5,40687.5
69035,-7.08,110.9,997.59,-507.5,8417.5,43767.5
69064,-4.27,112.24,995.89,-1400.0,7052.5,43225.0
69093,-0.85,113.58,994.06,-2835.0,6562.5,43960.0
69122,4.64,115.17,993.32,-3360.0,5040.0,47180.0
69151,15.62,118.22,992.1,-1435.0,525.0,45290.0
69180,30.5,122.98,989.05,-1645.0,-5757.5,37380.0
69209,47.09,127.86,986.86,-6580.0,350.0,31482.5
69238,66.0,132.25,989.54,-9992.5,5950.0,25602.5
69267,87.11,136.15,997.72,-5547.5,5547.5,14717.5
69296,108.46,140.79,1006.5,3132.5,-1907.5,3570.0
69325,129.56,147.01,1010.65,5792.5,-1067.5,-7087.5
69354,149.08,153.23,1010.77,5652.5,-1312.5,-19180.0
69383,164.94,157.99,1009.67,6317.5,-2327.5,-30905.0
69412,176.41,160.67,1006.74,4917.5,-2992.5,-41265.0
69441,181.17,161.04,1002.72,2432.5,-4165.0,-48597.5
69470,179.95,159.09,1000.16,1610.0,-5022.5,-49560.0
69499,176.41,156.65,997.96,2660.0,-5792.5,-47810.0
69528,171.53,154.33,996.01,-332.5,-5932.5,-49017.5
69557,162.26,150.06,996.01,-1645.0,-5145.0,-51502.5
69585,143.96,144.08,996.37,-175.0,-6212.5,-46550.0
69614,117.73,136.88,996.37,-1155.0,-3342.5,-32812.5
69642,89.06,128.47,997.96,350.0,-1802.5,-16187.5
69671,62.71,120.29,999.91,1487.5,-665.0,-3902.5
69700,39.04,113.46,1001.25,892.5,1365.0,5897.5
69729,17.45,108.34,1001.5,1767.5,2502.5,18585.0
69758,2.2,105.77,1000.52,525.0,5355.0,29837.5
69788,-5.49,105.65,999.55,70.0,7157.5,36120.0
69817,-8.3,106.38,998.33,700.0,6125.0,38885.0
69847,-9.27,107.48,995.76,-735.0,6667.5,41282.5
69876,-9.27,108.09,992.59,-2957.5,5792.5,44607.5
69906,-7.32,108.09,989.42,-5250.0,7192.5,49455.0
69935,-1.71,108.34,986.74,-9817.5,13825.0,52710.0
69964,10.86,110.04,987.22,-13195.0,14350.0,49910.0
69993,31.48,114.44,992.84,-6772.5,2415.0,37380.0
70022,55.27,121.76,1000.28,-2485.0,-280.0,24132.5
70051,80.03,130.66,1006.74,-840.0,2870.0,14122.5
70080,103.82,138.84,1011.14,2485.0,735.0,-980.0
70109,122.49,145.06,1013.33,6755.0,-6352.5,-13912.5
70137,135.18,149.08,1013.09,5407.5,-4497.5,-21822.5
70166,143.72,151.77,1011.62,4375.0,-4410.0,-27440.0
70195,150.3,153.23,1010.28,4182.5,-5932.5,-34142.5
70224,153.48,153.23,1009.18,3150.0,-5495.0,-39917.5
70253,152.62,151.89,1008.45,2590.0,-5582.5,-42420.0
70282,149.57,149.57,1008.09,2485.0,-6142.5,-45237.5
70311,144.2,146.77,1007.48,2922.5,-6947.5,-46760.0
70340,135.3,143.47,1006.26,2537.5,-5792.5,-46357.5
70369,122.73,140.3,1004.55,2572.5,-6160.0,-41527.5
70398,108.82,137.13,1002.6,455.0,-4235.0,-36925.0
70427,93.45,133.22,1001.62,-735.0,-3692.5,-33040.0
70456,75.88,128.95,1001.86,-315.0,-2765.0,-27300.0
70485,55.51,124.2,1002.72,350.0,-1155.0,-18410.0
70514,33.18,119.68,1003.45,1470.0,262.5,-6247.5
70543,11.83,115.78,1003.33,2257.5,1487.5,7717.5
70572,-4.51,113.7,1001.5,2187.5,2835.0,18550.0
70601,-15.62,113.34,998.2,367.5,3220.0,24115.0
70630,-24.16,113.83,995.52,-1400.0,3902.5,29470.0
70659,-29.77,114.44,994.3,-2782.5,5845.0,36697.5
70688,-30.26,115.41,994.79,-1820.0,5302.5,39865.0
70717,-27.82,116.14,994.67,-945.0,3657.5,39760.0
70746,-25.25,116.39,993.81,-2485.0,4567.5,40495.0
70775,-21.96,116.39,992.1,-2450.0,3395.0,43085.0
70804,-14.15,117.12,990.15,-1347.5,-1505.0,42000.0
70833,-0.24,120.66,987.96,2152.5,-9345.0,35105.0
70862,18.67,126.88,986.37,17.5,-8732.5,27790.0
70892,40.14,134.57,986.98,-6212.5,2100.0,21157.5
70921,61.49,141.76,991.13,-4620.0,787.5,12495.0
70951,82.84,148.6,996.62,-87.5,-2572.5,2957.5
70980,102.97,155.31,1000.77,1137.5,-1137.5,-6195.0
71008,119.56,161.04,1002.47,3080.0,-3657.5,-15242.5
71037,132.37,165.43,1001.74,3167.5,-5495.0,-22785.0
71065,142.37,168.12,999.42,1137.5,-4287.5,-28437.5
71094,149.57,169.58,996.5,-70.0,-5880.0,-34195.0
71123,154.7,170.07,993.81,-1155.0,-7210.0,-38395.0
71152,158.84,169.95,991.37,-3062.5,-5967.5,-42927.5
71181,160.31,168.48,989.79,-5145.0,-4900.0,-47320.0
71210,157.87,165.31,989.54,-4777.5,-5985.0,-49735.0
71239,151.65,160.43,989.42,-4760.0,-7035.0,-49962.5
71268,140.67,153.72,989.66,-6370.0,-5915.0,-47232.5
71297,124.07,145.42,991.01,-5880.0,-3710.0,-39952.5
71326,102.97,135.66,993.81,-5285.0,-2660.0,-30380.0
71355,77.96,124.93,998.57,-2782.5,-455.0,-16572.5
71384,52.22,115.53,1002.6,1540.0,-822.5,997.5
71413,31.72,109.07,1004.43,1295.0,3412.5,15592.5
71443,17.32,104.43,1005.65,1645.0,5145.0,24517.5
71472,6.22,100.77,1006.74,2940.0,5932.5,32585.0
71501,-1.1,97.97,1006.62,3990.0,6125.0,40512.5
71530,-3.78,96.26,1005.04,3832.5,6370.0,44485.0
71559,-3.17,95.28,1002.6,2152.5,6177.5,47215.0
71588,2.32,95.77,1001.38,962.5,6387.5,48247.5
71617,11.35,97.84,1000.4,875.0,6072.5,44660.0
71646,19.89,100.53,998.69,437.5,3150.0,43697.5
71675,32.21,104.19,997.35,682.5,1715.0,43872.5
71705,52.34,110.04,996.13,822.5,3062.5,35717.5
71734,77.1,118.34,995.28,192.5,717.5,22365.0
71764,103.46,127.86,995.28,-665.0,892.5,9012.5
71793,128.1,136.88,995.52,-1435.0,262.5,-6352.5
71822,146.4,143.72,995.76,-1225.0,-1960.0,-17465.0
71851,159.45,148.11,995.76,-892.5,-3605.0,-24955.0
71880,168.36,150.43,995.52,-1015.0,-5075.0,-31552.5
71909,173.48,150.79,996.01,-1190.0,-5215.0,-36347.5
71938,174.83,149.69,996.62,-560.0,-5547.5,-39585.0
71967,173.73,147.86,996.62,-262.5,-6020.0,-41650.0
71995,170.68,145.67,995.52,-1417.5,-5285.0,-44187.5
72024,164.33,142.62,994.79,-3482.5,-4830.0,-45692.5
72052,155.18,138.23,996.01,-3115.0,-3097.5,-44502.5
72081,142.98,132.61,998.08,-1767.5,-2817.5,-43995.0
72109,124.81,125.78,1000.16,227.5,-3220.0,-38290.0
72138,101.63,118.46,1001.62,1085.0,-735.0,-26302.5
72167,76.37,111.14,1002.96,1697.5,980.0,-11725.0
72196,52.83,105.16,1004.18,3202.5,1540.0,3465.0
72225,34.65,101.38,1004.06,2957.5,2922.5,14665.0
72254,21.72,99.31,1003.82,2450.0,4602.5,21875.0
72283,11.47,97.72,1003.08,2222.5,5372.5,28245.0
72313,2.93,96.01,1001.62,1330.0,5495.0,34615.0
72342,-2.07,94.67,1000.4,262.5,6597.5,40215.0
72372,-2.44,94.92,1000.16,367.5,6562.5,43820.0
72401,0.73,96.26,999.91,1400.0,5162.5,45727.5
72431,6.83,98.33,998.94,1085.0,4725.0,45640.0
72460,15.98,101.5,997.96,87.5,4357.5,44345.0
72489,28.55,105.9,997.84,612.5,2730.0,41352.5
72518,44.9,112.0,997.59,1977.5,665.0,34982.5
72547,64.17,119.8,996.74,1540.0,-682.5,28000.0
72576,86.86,129.08,996.86,-262.5,787.5,18112.5
72605,110.9,138.59,997.96,-175.0,910.0,3377.5
72634,130.66,146.64,998.81,2187.5,-3797.5,-11200.0
72663,144.69,152.5,998.69,2152.5,-3447.5,-19180.0
72692,155.18,156.65,997.72,1347.5,-2747.5,-25602.5
72721,162.02,159.09,996.25,1172.5,-5512.5,-32970.0
72750,164.46,159.94,994.79,927.5,-6685.0,-36715.0
72779,164.21,159.7,992.59,0.0,-6580.0,-38570.0
72809,162.02,157.99,990.64,-2292.5,-5880.0,-42420.0
72838,155.18,154.33,990.4,-2467.5,-6370.0,-43820.0
72867,144.57,150.06,991.13,-700.0,-6562.5,-40075.0
72896,132.98,147.25,990.27,-1995.0,-4042.5,-35245.0
72925,120.54,145.18,988.69,-4165.0,-3797.5,-31937.5
72954,106.38,141.76,989.18,-4900.0,-4480.0,-29295.0
72982,87.35,136.52,992.47,-3990.0,-1715.0,-21227.5
73011,64.78,130.78,997.84,-1347.5,227.5,-6737.5
73040,44.9,126.03,1002.6,2695.0,927.5,7437.5
73069,30.62,123.1,1005.16,3710.0,4042.5,17342.5
73098,21.11,121.51,1006.26,4532.5,6055.0,23905.0
73127,15.01,120.9,1005.52,6440.0,4900.0,28612.5
73156,11.47,121.27,1002.35,4812.5,5862.5,32095.0
73185,10.49,122.73,998.33,2502.5,6142.5,34912.5
73214,11.96,124.56,994.54,192.5,5320.0,36662.5
73244,14.88,125.9,992.23,-1365.0,5425.0,37327.5
73273,18.06,127.0,990.4,-455.0,3150.0,38500.0
73303,23.67,128.34,988.2,-2222.5,3587.5,40127.5
73332,33.18,130.05,986.61,-6300.0,6475.0,36942.5
73362,43.31,131.76,987.47,-8190.0,5127.5,32795.0
73391,55.88,134.69,991.01,-6055.0,1260.0,30117.5
73420,74.91,140.67,996.01,-2765.0,297.5,20772.5
73449,96.87,148.6,1000.89,385.0,857.5,7262.5
73478,117.61,156.16,1004.3,4830.0,-2047.5,-4060.0
73507,136.15,162.75,1004.43,6265.0,-3552.5,-14245.0
73535,151.28,167.51,1001.86,4690.0,-4147.5,-23712.5
73564,162.14,170.19,998.45,2992.5,-4900.0,-30800.0
73593,170.19,171.53,994.67,1557.5,-7070.0,-37887.5
73622,174.22,171.17,991.49,-1015.0,-6895.0,-44432.5
73651,172.26,168.85,989.66,-1330.0,-7875.0,-47075.0
73680,164.58,164.7,988.57,-2520.0,-6702.5,-45482.5
73709,151.89,159.58,989.54,-4480.0,-3902.5,-41405.0
73738,135.42,153.23,992.96,-2135.0,-3692.5,-34965.0
73767,116.75,146.89,996.25,157.5,-3867.5,-26722.5
73796,96.62,140.79,997.96,560.0,-1890.0,-17640.0
73825,76.13,134.93,998.57,262.5,-735.0,-8855.0
73855,55.63,129.56,999.55,245.0,1050.0,2362.5
73884,38.55,125.9,1000.4,2012.5,1785.0,14945.0
73913,28.06,124.44,999.55,1925.0,3220.0,22592.5
73942,23.3,124.68,998.33,1277.5,4340.0,26617.5
73971,22.57,126.15,997.59,1347.5,4042.5,28472.5
74000,24.28,127.86,996.74,1190.0,4270.0,29470.0
74029,27.45,129.44,995.15,717.5,3727.5,28735.0
74058,31.11,130.91,993.32,-665.0,2992.5,27930.0
74087,35.75,132.74,992.47,-1225.0,3150.0,28087.5
74116,41.85,134.69,991.86,-2030.0,3465.0,26390.0
74145,47.34,136.4,991.62,-3360.0,4585.0,23992.5
74174,51.24,137.25,992.35,-2187.5,2117.5,23047.5
74203,55.27,138.1,993.08,-2170.0,3010.0,23607.5
74232,60.27,139.08,994.06,-2345.0,2485.0,22785.0
74261,65.27,140.06,996.25,-1050.0,1032.5,21665.0
74291,71.0,141.89,997.59,1382.5,-682.5,21525.0
74320,79.06,144.57,996.62,665.0,-1347.5,18952.5
74350,88.69,147.13,995.76,-2135.0,647.5,12670.0
74379,97.6,149.21,997.47,-490.0,647.5,7910.0
74408,107.85,151.89,999.79,2135.0,-525.0,3605.0
74437,120.05,155.67,1000.77,2817.5,-70.0,-2870.0
74466,131.52,159.33,1000.16,2292.5,-490.0,-9835.0
74495,140.42,162.26,999.42,1872.5,-1015.0,-15435.0
74524,146.77,163.97,998.69,3115.0,-3027.5,-19460.0
74553,150.91,165.07,997.47,2170.0,-3552.5,-23537.5
74582,152.26,165.31,996.62,1785.0,-3850.0,-25690.0
74611,151.77,165.19,995.89,1872.5,-4497.5,-26145.0
74640,150.79,165.19,995.03,1592.5,-4532.5,-27475.0
74669,148.35,164.7,994.3,1295.0,-5372.5,-28612.5
74698,144.57,163.97,993.69,752.5,-4655.0,-28035.0
74727,139.57,163.11,993.32,927.5,-5547.5,-27632.5
74756,134.32,162.5,992.84,402.5,-4707.5,-25462.5
74785,129.69,162.14,992.59,-490.0,-3797.5,-25235.0
74814,124.56,161.65,993.08,-87.5,-4305.0,-24797.5
74843,118.83,161.16,993.45,-210.0,-3097.5,-23047.5
74872,112.73,161.04,993.2,472.5,-3517.5,-21122.5
74901,107.12,161.53,991.25,-157.5,-4182.5,-20055.0
74930,102.72,162.5,988.2,-4165.0,-4567.5,-20807.5
74958,98.09,162.63,986.98,-6667.5,-4375.0,-22435.0
74987,89.79,160.8,988.93,-5722.5,-1522.5,-19425.0
75016,76.86,156.89,992.71,-2677.5,227.5,-10832.5
75045,62.34,152.5,996.25,962.5,385.0,805.0
75074,50.26,149.21,997.72,2905.0,1382.5,10535.0
75103,42.46,147.74,997.47,3167.5,2030.0,16957.5
75132,38.8,147.62,996.98,3062.5,2870.0,19862.5
75162,37.45,148.11,996.13,3010.0,2975.0,20685.0
75191,36.6,148.6,994.91,2222.5,3377.5,22557.5
75221,36.48,149.08,993.45,1382.5,3692.5,25410.0
75250,37.94,149.57,991.98,1225.0,2905.0,26285.0
75280,41.24,150.79,990.52,367.5,2292.5,25340.0
75309,46.12,152.99,989.42,-962.5,3115.0,23940.0
75339,51.0,155.06,989.18,-2012.5,2852.5,21577.5
75368,54.9,156.16,989.66,-1977.5,2415.0,20177.5
75397,58.07,157.14,990.52,-1242.5,2362.5,21087.5
75426,63.2,158.84,990.64,-437.5,1977.5,20212.5
75455,68.93,160.43,989.66,-402.5,542.5,16275.0
75484,73.08,161.41,988.44,-1312.5,297.5,15225.0
75513,76.74,161.53,987.83,-2607.5,1995.0,14910.0
75542,80.52,161.04,988.57,-2975.0,1907.5,14140.0
75571,84.18,160.67,989.66,-1277.5,122.5,13597.5
75600,88.82,160.8,990.03,-1365.0,227.5,14000.0
75629,94.92,161.89,990.64,-1750.0,1295.0,13422.5
75658,103.33,163.36,992.23,-1032.5,-402.5,10587.5
75687,114.19,165.19,995.28,-402.5,420.0,5267.5
75717,125.42,167.02,998.2,1890.0,-997.5,-2222.5
75746,134.44,168.85,999.06,2537.5,-1260.0,-7752.5
75775,141.4,169.95,998.69,1680.0,-840.0,-11550.0
75804,146.77,170.31,998.33,1557.5,-1505.0,-15575.0
