acc_x,acc_y,acc_z,gyro_x,gyro_y,gyro_z
3.66,264.62,981.49,7805.0,1715.0,20177.5
4.64,264.74,982.1,9205.0,140.0,20370.0
5.61,265.23,982.22,11445.0,-1102.5,21805.0
7.08,266.45,981.37,12110.0,52.5,23292.5
8.78,268.4,979.17,10430.0,1872.5,23975.0
10.25,271.08,976.61,9397.5,1295.0,24115.0
11.96,273.77,974.05,9642.5,-35.0,24482.5
14.52,276.57,971.73,10027.5,-210.0,24482.5
17.57,279.38,969.05,9380.0,595.0,23940.0
20.98,282.19,965.75,8067.5,857.5,23520.0
24.77,285.24,962.46,7017.5,682.5,22872.5
29.04,288.53,959.29,5180.0,787.5,21857.5
33.92,292.31,956.72,3902.5,402.5,20475.0
40.26,296.46,955.02,3605.0,-87.5,19022.5
48.07,301.1,953.43,3902.5,-227.5,16887.5
57.34,305.73,952.09,3657.5,-402.5,14525.0
68.08,310.49,950.87,2327.5,140.0,10447.5
79.54,315.25,950.26,1067.5,1575.0,4567.5
90.04,319.4,950.14,1172.5,542.5,-1225.0
99.55,323.06,950.01,2642.5,-1785.0,-6300.0
108.58,326.47,949.77,2940.0,-2380.0,-10920.0
116.75,329.16,949.28,2485.0,-1522.5,-15662.5
123.59,331.11,948.67,1575.0,-1312.5,-20335.0
128.47,332.69,948.31,1750.0,-3342.5,-25007.5
131.52,333.91,947.82,3080.0,-6457.5,-28822.5
132.98,335.01,947.45,3885.0,-8890.0,-31745.0
133.59,335.74,947.21,3972.5,-9520.0,-33320.0
133.47,336.11,947.45,3377.5,-5950.0,-34212.5
132.49,336.23,947.57,1610.0,-1732.5,-34072.5
131.03,335.99,947.7,-490.0,1557.5,-33862.5
129.56,335.99,948.31,-577.5,1680.0,-34912.5
128.1,335.74,948.92,840.0,-210.0,-37135.0
125.78,335.13,949.4,2467.5,-2467.5,-40652.5
122.0,334.16,950.14,3097.5,-5460.0,-42875.0
116.88,332.69,951.11,4200.0,-7490.0,-43610.0
111.02,331.23,951.97,5005.0,-7945.0,-43032.5
104.43,329.64,952.21,5617.5,-7035.0,-42297.5
97.36,328.06,952.09,5512.5,-6142.5,-41457.5
88.82,326.35,951.84,4725.0,-6317.5,-40040.0
79.42,324.52,951.84,5407.5,-7700.0,-37975.0
69.3,322.57,951.6,6807.5,-9257.5,-35245.0
58.56,320.62,951.23,6702.5,-8907.5,-31937.5
47.34,318.42,950.87,6037.5,-7805.0,-27825.0
35.87,316.22,950.14,5145.0,-7140.0,-22697.5
23.91,314.03,949.53,5547.5,-7175.0,-17570.0
11.59,311.83,948.79,6335.0,-7612.5,-12092.5
-0.98,310.25,947.94,7070.0,-8120.0,-5635.0
-12.69,309.27,947.21,7175.0,-7315.0,1680.0
-23.18,309.15,946.6,6160.0,-4445.0,9187.5
-32.33,309.51,945.38,4882.5,-1540.0,15750.0
-39.77,310.25,943.55,3867.5,-735.0,21297.5
-45.26,311.1,941.23,3745.0,-2292.5,25357.5
-48.43,311.95,938.91,3465.0,-3360.0,28455.0
-50.02,312.56,936.72,2590.0,-3290.0,30730.0
-50.51,312.69,934.76,1330.0,-2695.0,33687.5
-50.02,312.93,933.79,122.5,-1750.0,36715.0
-48.43,313.54,933.42,-262.5,-1295.0,39095.0
-45.87,314.88,933.06,262.5,-2187.5,40827.5
-41.97,316.47,932.45,665.0,-3360.0,42402.5
-36.72,317.93,931.96,-735.0,-1872.5,44485.0
-30.26,319.64,932.08,-2502.5,1312.5,45797.5
-23.18,321.59,932.08,-2642.5,2047.5,45832.5
-15.25,323.3,930.98,-2607.5,857.5,45290.0
-6.22,324.52,930.13,-4235.0,682.5,44817.5
3.78,325.74,930.62,-5792.5,2537.5,43557.5
13.91,327.45,932.2,-4917.5,2152.5,41842.5
24.16,329.16,933.3,-1697.5,-630.0,39585.0
34.77,330.74,933.54,-280.0,-2642.5,37800.0
46.73,332.33,934.03,-1032.5,-1067.5,35717.5
59.54,334.04,935.25,-2870.0,2082.5,33407.5
72.59,335.99,936.96,-3710.0,3815.0,29540.0
85.89,338.06,938.91,-2957.5,2747.5,24587.5
99.19,340.62,941.11,-1050.0,-192.5,18952.5
112.12,343.55,943.67,1837.5,-2817.5,12705.0
124.2,346.72,945.5,4725.0,-3500.0,6877.5
134.69,349.77,945.99,4917.5,-2275.0,2485.0
143.96,352.34,945.5,3325.0,-385.0,-1207.5
151.77,354.29,944.77,2852.5,910.0,-5267.5
158.48,356.0,943.67,3430.0,-175.0,-9257.5
164.09,357.34,942.08,3097.5,-1365.0,-13037.5
168.73,358.68,940.5,2170.0,-1505.0,-16555.0
172.51,359.78,939.16,1277.5,-1470.0,-19512.5
175.19,360.75,938.42,735.0,-1015.0,-21927.5
176.9,361.61,938.06,210.0,-122.5,-23817.5
178.0,361.97,937.57,-245.0,490.0,-25830.0
178.24,362.1,937.2,-455.0,-332.5,-28210.0
177.88,361.85,936.96,0.0,-1820.0,-30660.0
176.41,361.36,937.08,787.5,-2957.5,-32270.0
174.46,360.88,937.33,1627.5,-3185.0,-33232.5
172.14,360.27,937.2,1540.0,-2677.5,-33932.5
169.09,359.66,936.72,647.5,-1592.5,-34597.5
165.43,358.8,936.35,-455.0,-717.5,-34930.0
161.04,357.7,936.47,-997.5,-87.5,-34895.0
156.16,356.48,937.2,-280.0,-420.0,-34422.5
151.16,355.26,937.69,927.5,-1715.0,-34230.0
146.4,354.17,937.81,1452.5,-2712.5,-34387.5
141.28,353.31,937.69,1470.0,-3325.0,-35052.5
135.42,352.46,937.45,1347.5,-4025.0,-35192.5
128.71,351.24,937.33,1190.0,-4095.0,-34650.0
121.27,349.9,937.69,1155.0,-3850.0,-33092.5
112.85,348.31,938.18,1855.0,-3430.0,-30852.5
104.07,346.85,938.42,2432.5,-3220.0,-28087.5
94.79,345.38,938.55,2012.5,-2292.5,-25060.0
85.16,344.04,938.55,1242.5,-822.5,-21927.5
75.03,342.45,938.67,1067.5,420.0,-18182.5
64.42,340.99,938.79,822.5,2047.5,-13492.5
53.68,339.4,938.42,1032.5,2397.5,-8610.0
43.19,337.94,937.69,1050.0,1977.5,-3902.5
33.43,336.48,937.08,945.0,1295.0,1067.5
24.89,335.26,936.84,857.5,1680.0,5967.5
17.57,334.65,936.59,1347.5,1627.5,9817.5
11.35,334.52,935.74,2152.5,-157.5,12985.0
6.59,334.77,934.52,1802.5,-1260.0,15960.0
3.17,335.01,933.42,192.5,-35.0,18812.5
0.85,335.26,933.18,-945.0,1662.5,21507.5
-0.49,335.5,933.18,-682.5,1925.0,24062.5
-0.73,335.74,933.06,105.0,980.0,25602.5
0.12,335.99,932.81,192.5,332.5,26722.5
1.71,336.48,932.93,-647.5,787.5,27405.0
3.54,337.09,933.3,-402.5,297.5,27912.5
5.61,337.7,933.54,700.0,-1085.0,28840.0
8.54,338.43,933.42,630.0,-1067.5,29767.5
12.2,338.92,933.42,-437.5,682.5,30712.5
16.59,339.53,933.91,-1505.0,2782.5,31325.0
21.47,340.38,934.64,-1277.5,2765.0,31097.5
26.47,341.36,935.13,245.0,560.0,30082.5
31.84,342.58,935.25,1820.0,-2117.5,28542.5
37.33,343.8,934.89,2082.5,-3097.5,27352.5
43.07,345.02,934.76,1015.0,-1977.5,26810.0
48.8,346.24,934.52,735.0,-840.0,26337.5
54.9,347.46,934.03,210.0,-70.0,26040.0
61.24,348.8,933.3,-105.0,35.0,24885.0
68.08,350.38,932.57,0.0,-1277.5,23012.5
75.15,351.85,931.59,0.0,-2607.5,21000.0
82.72,353.31,931.35,-682.5,-2572.5,19477.5
91.01,354.78,931.84,-1032.5,-560.0,17920.0
99.8,356.36,932.81,-1575.0,1785.0,16100.0
108.82,358.19,933.79,-1015.0,2327.5,13055.0
117.85,360.14,934.76,-315.0,1172.5,9100.0
126.64,361.85,935.62,472.5,-245.0,4515.0
134.93,363.44,936.47,1225.0,-1417.5,-17.5
142.25,365.02,937.2,1662.5,-1645.0,-4147.5
148.35,366.37,937.45,1837.5,-1242.5,-7157.5
153.48,367.59,937.2,1242.5,-245.0,-9887.5
157.75,368.68,936.59,332.5,280.0,-12582.5
161.16,369.66,935.74,17.5,-70.0,-15522.5
163.48,370.39,934.52,140.0,-1137.5,-18182.5
164.94,370.76,932.93,-420.0,-1697.5,-20247.5
165.68,370.88,931.59,-1785.0,-1050.0,-22067.5
165.43,370.76,930.62,-2607.5,-542.5,-23607.5
164.33,370.51,929.88,-2590.0,-1435.0,-24657.5
162.87,370.27,929.03,-3080.0,-1697.5,-25392.5
161.28,369.78,928.66,-4147.5,-1067.5,-26460.0
159.33,368.93,928.79,-4637.5,-682.5,-27335.0
156.65,367.95,929.4,-4602.5,-647.5,-28122.5
153.35,366.37,930.37,-4427.5,-1102.5,-28700.0
149.33,364.41,931.96,-3902.5,-1015.0,-28752.5
144.45,362.1,933.91,-3132.5,-455.0,-28105.0
139.08,359.66,935.62,-1732.5,-490.0,-27072.5
133.22,357.34,936.84,-1102.5,-980.0,-26145.0
127.37,354.9,938.18,-945.0,-962.5,-25672.5
120.78,352.58,939.64,-682.5,-262.5,-24535.0
113.22,350.26,941.35,-297.5,-437.5,-23100.0
105.29,347.82,943.06,822.5,-682.5,-20527.5
96.87,345.5,944.77,2257.5,-262.5,-17902.5
87.72,343.31,946.11,3535.0,35.0,-14542.5
78.45,341.23,946.48,4620.0,-315.0,-10885.0
69.3,339.4,945.74,4497.5,-402.5,-7157.5
60.76,337.7,944.77,3465.0,87.5,-3342.5
52.46,336.23,944.16,3202.5,630.0,612.5
45.02,335.26,943.55,3727.5,612.5,4707.5
38.55,334.65,942.45,3587.5,962.5,8400.0
33.18,334.28,941.23,3167.5,980.0,11305.0
28.55,334.28,939.77,3185.0,87.5,14087.5
24.89,334.4,938.18,2992.5,-490.0,16852.5
22.69,334.65,936.59,2047.5,-315.0,19040.0
21.47,335.01,935.13,1102.5,-402.5,20545.0
21.35,335.5,934.03,822.5,-1330.0,21647.5
21.84,335.99,933.54,752.5,-1995.0,22872.5
23.06,336.72,933.3,945.0,-1855.0,24045.0
24.89,337.45,933.18,875.0,-1137.5,25305.0
27.57,338.18,932.93,437.5,-735.0,26145.0
30.87,339.28,932.32,227.5,-1015.0,26320.0
34.65,340.5,931.84,210.0,-1960.0,25777.5
38.8,341.72,930.86,315.0,-3465.0,25112.5
43.68,342.94,929.88,-52.5,-4340.0,24412.5
48.92,344.04,929.27,-717.5,-3815.0,23940.0
54.53,344.89,929.03,-1715.0,-2117.5,23800.0
60.39,345.75,929.4,-2730.0,-297.5,23695.0
66.61,346.72,929.88,-2205.0,-35.0,23012.5
73.57,347.7,930.62,-2012.5,-245.0,21997.5
81.37,348.68,931.47,-2345.0,0.0,20230.0
89.79,350.14,932.81,-1820.0,122.5,17920.0
98.7,351.85,934.4,-927.5,105.0,14805.0
107.6,353.56,935.37,245.0,-490.0,10885.0
116.14,355.39,936.11,700.0,-1452.5,7210.0
124.07,357.09,936.47,1120.0,-1907.5,3885.0
131.52,358.8,936.35,875.0,-1330.0,1085.0
138.59,360.51,936.11,210.0,-542.5,-2082.5
144.81,362.1,935.74,-262.5,-805.0,-5285.0
150.3,363.56,935.25,-175.0,-1365.0,-8592.5
154.7,364.54,934.52,-525.0,-1767.5,-11812.5
158.11,365.02,933.79,-1242.5,-1540.0,-14122.5
160.31,365.02,933.54,-1960.0,-332.5,-15645.0
161.65,364.78,933.42,-2275.0,630.0,-16940.0
162.14,364.66,933.18,-2047.5,0.0,-18462.5
162.02,364.41,932.57,-1995.0,-1050.0,-19880.0
161.53,364.05,931.96,-2747.5,-1260.0,-21000.0
160.67,363.32,932.08,-3710.0,-700.0,-22032.5
159.33,362.34,932.81,-3902.5,350.0,-22540.0
157.38,361.12,934.03,-3745.0,1417.5,-22785.0
155.06,359.78,935.5,-2817.5,1365.0,-23170.0
152.38,358.44,936.59,-1627.5,472.5,-23397.5
149.57,357.22,937.69,-1505.0,752.5,-23642.5
146.52,355.87,938.67,-1732.5,1137.5,-24097.5
142.98,354.53,939.64,-892.5,140.0,-24307.5
139.08,353.07,940.62,35.0,-455.0,-24202.5
134.81,351.48,941.84,385.0,-87.5,-23782.5
129.93,349.9,942.82,542.5,472.5,-23310.0
124.2,347.94,943.79,770.0,350.0,-22382.5
117.73,345.99,945.01,1680.0,-560.0,-21332.5
110.65,343.8,946.35,3237.5,-1575.0,-19862.5
102.97,341.84,947.57,4077.5,-1750.0,-17832.5
94.92,339.77,948.43,4532.5,-1050.0,-15400.0
86.5,337.7,949.4,4375.0,315.0,-12075.0
77.84,335.62,950.38,5022.5,875.0,-8277.5
69.3,334.04,951.11,6912.5,350.0,-4322.5
61.49,332.82,950.99,7962.5,105.0,-402.5
54.9,331.96,950.26,6860.0,2065.0,3342.5
49.04,331.6,949.53,5600.0,4060.0,6632.5
43.8,331.47,949.16,6387.5,3815.0,9747.5
39.16,332.08,948.43,8172.5,2712.5,12390.0
35.38,332.94,946.48,8855.0,1872.5,14700.0
32.7,334.28,943.06,7717.5,1330.0,16607.5
30.99,335.74,939.4,5582.5,1155.0,18147.5
30.13,337.33,936.23,4060.0,875.0,19407.5
29.89,339.04,933.67,3360.0,35.0,20422.5
30.26,340.87,931.35,3237.5,-1085.0,21192.5
31.23,342.94,928.79,3097.5,-2205.0,21735.0
32.94,345.02,925.98,2152.5,-2922.5,22365.0
35.38,346.85,923.54,385.0,-2817.5,22645.0
38.43,348.68,921.83,-840.0,-2800.0,22575.0
41.6,350.26,920.61,-1172.5,-3360.0,22470.0
45.02,351.85,919.64,-980.0,-4392.5,22295.0
48.92,353.31,918.54,-1330.0,-5092.5,22032.5
53.44,354.53,917.81,-2870.0,-4375.0,21840.0
58.32,355.75,917.81,-3377.5,-3290.0,21280.0
62.95,356.97,917.93,-2712.5,-3360.0,21000.0
67.95,358.19,917.2,-2975.0,-2817.5,21035.0
73.93,359.53,916.34,-4742.5,-1732.5,20580.0
81.5,361.24,915.85,-5320.0,-1137.5,19915.0
90.65,363.8,915.24,-4847.5,-1277.5,17885.0
101.02,366.37,914.02,-5722.5,-2152.5,14157.5
112.0,368.81,913.29,-7997.5,-2572.5,9345.0
122.61,370.88,913.9,-8855.0,-2555.0,3500.0
131.76,372.1,914.76,-7070.0,-4987.5,-1155.0
140.06,373.08,915.24,-6282.5,-6300.0,-4585.0
147.74,373.69,915.61,-8172.5,-4742.5,-8225.0
154.33,373.81,916.71,-10010.0,-3272.5,-11410.0
159.45,373.2,918.78,-10517.5,-2117.5,-13772.5
163.36,372.22,921.83,-9642.5,-1610.0,-16152.5
166.29,370.88,924.76,-7910.0,-2117.5,-18235.0
168.24,368.93,927.44,-7315.0,-665.0,-20072.5
169.09,366.49,930.13,-7647.5,1295.0,-20772.5
169.09,363.8,933.06,-6842.5,1207.5,-21472.5
168.36,361.12,935.98,-4445.0,-455.0,-22715.0
167.14,358.8,937.94,-2310.0,-2222.5,-23940.0
165.68,356.61,938.91,-2117.5,-2047.5,-24307.5
164.09,354.41,940.13,-4235.0,1540.0,-24307.5
162.02,352.34,942.08,-4865.0,4235.0,-24482.5
159.09,350.14,944.28,-2747.5,3062.5,-24710.0
155.67,348.19,945.62,-927.5,1400.0,-25147.5
152.01,346.11,946.72,-857.5,1505.0,-25427.5
147.62,343.92,947.7,-577.5,2537.5,-24972.5
142.74,341.6,948.43,-297.5,2975.0,-24045.0
137.37,339.28,948.79,-192.5,3027.5,-23240.0
131.52,337.21,949.16,0.0,2380.0,-22522.5
125.42,335.01,949.4,507.5,1855.0,-21630.0
118.46,333.06,949.77,910.0,1697.5,-20387.5
110.9,330.86,950.14,1610.0,1137.5,-18200.0
103.09,328.67,950.38,2187.5,892.5,-15732.5
95.28,326.72,950.38,1925.0,1365.0,-13405.0
87.23,324.64,950.38,1785.0,1190.0,-11130.0
79.06,322.69,950.87,2782.5,350.0,-8347.5
70.76,320.86,951.6,3430.0,385.0,-4760.0
62.95,319.15,952.09,3885.0,1487.5,-805.0
55.75,317.81,952.33,4130.0,2380.0,3115.0
49.29,316.83,952.33,4515.0,2677.5,6545.0
43.68,316.1,952.09,5110.0,2205.0,9257.5
38.8,315.74,951.36,5775.0,1400.0,11970.0
34.77,315.49,950.14,5722.5,1365.0,14507.5
31.72,315.49,948.79,4480.0,1995.0,16835.0
29.65,315.61,947.82,3727.5,2327.5,18847.5
28.3,315.98,947.45,4235.0,2030.0,20597.5
27.69,316.35,947.21,4725.0,1610.0,22172.5
27.57,316.96,946.84,4602.5,1295.0,23275.0
27.82,317.32,946.84,4480.0,1750.0,24955.0
28.79,317.81,947.09,4935.0,2695.0,26442.5
30.5,318.42,947.21,5442.5,3150.0,27422.5
32.45,319.52,946.72,6317.5,1942.5,27632.5
35.01,320.74,945.87,6562.5,472.5,27702.5
38.06,321.96,945.01,6230.0,210.0,27755.0
41.48,323.42,944.28,5127.5,1732.5,27912.5
44.9,324.89,944.04,5320.0,2012.5,28000.0
48.8,326.59,943.55,6667.5,455.0,28175.0
53.44,328.42,942.57,7087.5,0.0,27720.0
58.8,330.25,941.35,6002.5,1032.5,26827.5
64.29,332.33,940.25,5670.0,1295.0,25305.0
69.66,334.4,938.79,5915.0,192.5,24290.0
75.4,336.72,937.08,5302.5,35.0,23362.5
81.62,339.16,935.37,4410.0,1032.5,22295.0
88.33,341.97,933.91,3727.5,1172.5,20772.5
95.65,344.77,932.57,3885.0,297.5,18830.0
103.46,347.94,931.47,3920.0,297.5,16572.5
112.0,351.36,930.37,2992.5,1732.5,14070.0
120.9,354.9,929.4,1662.5,3622.5,11007.5
129.69,358.44,928.54,1050.0,4182.5,6947.5
137.86,361.97,927.69,1365.0,2310.0,2187.5
145.06,365.02,926.47,1592.5,-17.5,-2520.0
151.04,367.46,925.37,1032.5,-700.0,-6370.0
155.92,369.29,924.52,17.5,70.0,-9117.5
159.58,370.76,924.03,-892.5,962.5,-11550.0
162.26,371.86,923.66,-1015.0,682.5,-13825.0
163.85,372.59,923.54,-1207.5,402.5,-15977.5
164.58,372.95,923.78,-1435.0,857.5,-17587.5
164.46,372.95,924.39,-770.0,1400.0,-18392.5
163.85,372.83,924.88,-420.0,1260.0,-19600.0
162.87,372.95,925.13,-770.0,1085.0,-21192.5
161.16,372.83,925.13,-805.0,560.0,-22382.5
158.84,372.47,925.25,-962.5,682.5,-22837.5
156.16,372.1,925.0,-1277.5,1330.0,-23117.5
153.23,371.73,924.64,-2187.5,1855.0,-23362.5
150.06,371.25,924.52,-2432.5,1785.0,-23747.5
146.77,370.64,924.64,-2222.5,1400.0,-24080.0
143.47,370.15,924.76,-2520.0,1470.0,-24447.5
140.06,369.54,925.13,-2660.0,1417.5,-24990.0
136.15,368.93,925.86,-2415.0,910.0,-25112.5
131.76,367.95,926.71,-1662.5,735.0,-24955.0
127.0,366.85,927.32,-1540.0,717.5,-24657.5
121.76,365.63,927.93,-1680.0,770.0,-24027.5
116.39,364.29,928.42,-1697.5,1137.5,-22960.0
111.02,362.95,929.27,-1785.0,1785.0,-21945.0
105.29,361.85,930.13,-1680.0,1925.0,-21245.0
99.06,360.63,930.86,-1032.5,875.0,-20475.0
92.6,359.53,931.35,-175.0,-140.0,-19355.0
85.89,358.44,931.59,-87.5,52.5,-17727.5
79.06,356.97,932.08,-770.0,1295.0,-15907.5
71.98,355.39,932.57,-630.0,4200.0,-13527.5
64.66,353.8,933.06,-2047.5,3972.5,-12075.0
56.85,352.09,933.79,-1015.0,2135.0,-9555.0
49.04,350.38,934.76,350.0,857.5,-6790.0
41.48,348.55,935.86,1347.5,1172.5,-3447.5
34.16,346.97,936.72,1855.0,1697.5,70.0
27.33,345.63,937.2,1750.0,2187.5,3535.0
21.23,344.65,937.94,2100.0,1890.0,6405.0
15.86,343.8,938.55,2905.0,1295.0,9152.5
11.47,343.31,939.03,3745.0,1295.0,11795.0
8.3,343.06,939.03,3692.5,2047.5,13895.0
5.73,343.06,938.67,3587.5,2380.0,15522.5
4.03,343.06,938.06,3797.5,1942.5,16905.0
2.68,343.31,937.2,4410.0,1295.0,18410.0
1.71,343.67,935.98,4357.5,1365.0,20160.0
1.71,344.28,934.52,3185.0,2030.0,21752.5
2.2,345.26,933.18,2030.0,2590.0,22767.5
3.29,346.36,932.2,2012.5,1120.0,23100.0
4.88,347.46,931.23,2607.5,-770.0,23205.0
6.95,348.68,930.13,2485.0,-1452.5,23327.5
9.27,349.9,928.91,1557.5,-1452.5,23660.0
11.96,351.12,927.93,595.0,-1050.0,23992.5
14.88,352.21,927.2,437.5,-1382.5,23992.5
18.18,353.19,926.59,455.0,-2135.0,23712.5
21.59,354.29,925.98,402.5,-2922.5,23205.0
24.89,355.26,925.25,647.5,-2905.0,23485.0
28.55,356.24,924.39,-770.0,-1085.0,24342.5
32.82,357.22,923.66,-1750.0,-1155.0,23677.5
37.58,357.95,923.3,-1820.0,-2800.0,22347.5
42.46,358.68,923.3,-1575.0,-4322.5,21105.0
47.58,359.41,923.66,-1505.0,-4287.5,20020.0
52.83,360.02,924.15,-1767.5,-4042.5,19232.5
58.19,360.51,924.64,-2030.0,-3815.0,18515.0
64.17,361.24,925.61,-1855.0,-3360.0,17465.0
70.76,361.97,926.59,-1540.0,-2887.5,16030.0
77.84,362.83,927.69,-1505.0,-2310.0,14350.0
85.16,363.68,928.91,-1522.5,-1522.5,12232.5
92.48,364.54,930.37,-1400.0,-1032.5,10045.0
99.8,365.51,932.2,-735.0,-507.5,7595.0
106.75,366.49,934.03,787.5,-735.0,4795.0
113.46,367.59,935.5,1802.5,-1172.5,2170.0
119.8,368.68,936.59,1977.5,-437.5,-560.0
125.17,369.78,937.2,2065.0,192.5,-3360.0
129.69,370.64,937.2,2677.5,-87.5,-5670.0
133.59,371.61,936.72,2730.0,-35.0,-7770.0
137.01,372.34,935.74,1837.5,455.0,-9992.5
139.57,373.08,934.76,1015.0,560.0,-11987.5
141.52,373.44,934.15,1225.0,682.5,-13667.5
142.98,373.93,933.42,1382.5,980.0,-15120.0
144.2,374.3,932.32,910.0,1155.0,-16747.5
145.06,374.78,931.35,367.5,1015.0,-18550.0
144.94,375.39,930.13,-87.5,227.5,-20440.0
143.47,375.64,928.66,-402.5,-962.5,-21665.0
141.15,375.52,926.96,-1260.0,-1715.0,-22137.5
138.47,374.91,925.86,-2992.5,-1137.5,-22172.5
135.54,373.81,925.98,-3850.0,-17.5,-22365.0
132.25,372.47,927.2,-3430.0,945.0,-21980.0
128.83,371.12,928.54,-2205.0,910.0,-21455.0
125.66,369.9,929.88,-1067.5,647.5,-21070.0
122.73,369.17,930.62,-700.0,927.5,-21157.5
119.8,368.56,930.98,-630.0,787.5,-21542.5
116.39,367.95,930.98,-665.0,122.5,-21630.0
112.97,367.22,930.98,-962.5,175.0,-21507.5
109.31,366.61,931.1,-927.5,210.0,-21175.0
105.29,366.0,931.1,-577.5,17.5,-20615.0
101.26,365.39,930.86,-647.5,35.0,-19967.5
97.11,364.78,930.49,-1242.5,315.0,-19670.0
92.72,364.17,930.13,-2100.0,332.5,-19232.5
87.96,363.32,930.25,-2205.0,-105.0,-18865.0
82.59,362.1,930.62,-1907.5,-980.0,-17885.0
76.98,360.63,931.59,-1330.0,-1277.5,-16432.5
71.0,359.17,932.57,-560.0,-1137.5,-14840.0
64.66,357.46,933.54,-262.5,-1330.0,-12757.5
58.32,355.75,934.28,52.5,-1820.0,-11147.5
51.85,354.04,935.5,-17.5,-857.5,-8575.0
45.38,352.46,936.84,612.5,17.5,-5652.5
39.04,350.99,937.57,1540.0,-192.5,-2922.5
32.94,349.65,937.81,1837.5,-245.0,-315.0
27.08,348.31,937.69,1802.5,-140.0,2485.0
21.59,347.09,937.45,1592.5,-175.0,5407.5
16.71,346.24,937.57,1767.5,-157.5,8295.0
12.81,345.38,937.57,2187.5,192.5,11200.0
9.88,345.02,937.33,2030.0,717.5,13580.0
8.05,344.77,936.96,1750.0,682.5,15155.0
6.95,344.89,936.72,2380.0,-280.0,16292.5
6.47,345.26,936.23,2782.5,-927.5,17640.0
6.71,345.75,935.74,2467.5,-980.0,18585.0
7.81,346.24,935.25,1960.0,-787.5,19302.5
9.27,346.72,935.01,1960.0,-892.5,20125.0
11.47,347.33,935.25,2117.5,-700.0,20755.0
14.03,348.07,935.37,2415.0,-560.0,20842.5
16.84,349.04,935.37,2695.0,-787.5,20842.5
19.76,349.9,935.01,2992.5,-1120.0,20650.0
22.69,350.99,934.28,3080.0,-1295.0,20615.0
25.99,352.09,933.18,3027.5,-1365.0,20545.0
29.52,353.19,931.71,1995.0,-1522.5,20370.0
33.18,354.17,930.49,1050.0,-1907.5,20107.5
37.21,355.14,929.88,595.0,-1872.5,19932.5
41.24,356.24,929.88,945.0,-1925.0,19600.0
45.38,357.34,930.01,1645.0,-2257.5,19250.0
50.02,358.44,929.88,1540.0,-1942.5,18690.0
54.9,359.41,929.64,1260.0,-1452.5,17587.5
59.78,360.39,929.4,945.0,-1417.5,16520.0
64.66,361.24,929.15,595.0,-1190.0,15417.5
69.78,362.1,929.4,87.5,-805.0,14420.0
74.79,363.07,930.13,280.0,-262.5,13195.0
79.67,364.17,931.1,1592.5,-455.0,11847.5
84.67,365.39,931.35,1925.0,-612.5,10710.0
90.28,366.73,931.23,1172.5,385.0,9275.0
96.5,368.2,931.47,945.0,1137.5,7350.0
102.85,370.15,931.59,1785.0,1032.5,4637.5
108.95,372.1,931.1,2047.5,175.0,1680.0
114.44,374.05,929.88,1575.0,-542.5,-1032.5
119.56,375.64,928.66,577.5,-70.0,-3412.5
124.2,377.22,927.44,35.0,402.5,-5530.0
128.34,378.44,926.22,-542.5,87.5,-8015.0
132.0,379.66,925.25,-1295.0,-455.0,-10710.0
134.81,380.52,924.88,-1540.0,-542.5,-12915.0
136.76,381.13,924.88,-1662.5,-245.0,-14472.5
137.86,381.49,925.0,-1732.5,210.0,-15785.0
138.59,381.62,924.76,-1942.5,157.5,-17202.5
138.59,381.37,924.64,-2257.5,-280.0,-18707.5
137.98,381.01,924.64,-2660.0,-192.5,-19880.0
136.52,380.4,924.88,-2590.0,-140.0,-20580.0
134.69,379.42,925.25,-2572.5,105.0,-20895.0
132.49,378.69,925.61,-2555.0,140.0,-21280.0
130.05,377.83,925.98,-2660.0,175.0,-21577.5
127.61,376.98,926.59,-2467.5,315.0,-21892.5
124.81,376.0,927.2,-2240.0,297.5,-22137.5
121.51,375.15,927.44,-1995.0,35.0,-22312.5
117.97,374.3,927.69,-2012.5,227.5,-22050.0
114.19,373.32,927.69,-2362.5,840.0,-21402.5
110.65,372.34,927.44,-2695.0,980.0,-20895.0
107.24,371.37,927.2,-2922.5,682.5,-20877.5
103.94,370.39,927.44,-2940.0,-70.0,-21052.5
100.77,369.17,927.93,-2782.5,-227.5,-21157.5
97.11,367.95,928.91,-2555.0,-35.0,-20982.5
93.21,366.49,929.88,-2520.0,105.0,-20370.0
89.06,365.15,931.1,-2205.0,437.5,-19775.0
84.55,363.8,932.2,-1820.0,210.0,-19355.0
79.3,362.46,933.3,-1085.0,-612.5,-18357.5
73.57,361.0,934.52,-525.0,-612.5,-17535.0
66.86,359.17,935.25,-367.5,-1120.0,-15907.5
59.41,357.09,935.98,17.5,-1452.5,-13160.0
51.85,355.02,936.84,525.0,-682.5,-10272.5
44.29,353.07,937.2,1085.0,-262.5,-7525.0
36.6,351.24,936.84,1277.5,-962.5,-4672.5
29.04,349.53,936.11,997.5,-1347.5,-1627.5
22.08,347.94,935.25,245.0,-805.0,1750.0
15.98,346.48,934.64,-577.5,0.0,5372.5
11.1,345.38,934.89,-735.0,525.0,8312.5
7.2,344.53,935.5,70.0,87.5,10605.0
4.39,343.8,935.98,875.0,-472.5,12565.0
2.44,343.31,936.59,1260.0,-385.0,14437.5
1.22,343.06,936.96,1557.5,-280.0,16082.5
0.73,343.06,936.96,1732.5,-682.5,17202.5
0.85,343.06,936.84,1697.5,-1487.5,18147.5
1.46,342.94,936.96,1260.0,-1295.0,19215.0
2.68,343.06,937.45,1400.0,-717.5,19967.5
4.15,343.19,938.06,2502.5,-1242.5,20930.0
6.22,343.43,938.18,2765.0,-1400.0,21665.0
9.03,343.8,938.55,2397.5,-717.5,21840.0
12.08,344.53,938.91,2642.5,-665.0,21805.0
15.25,345.26,939.16,3202.5,-1347.5,21577.5
18.54,345.99,939.16,3850.0,-1767.5,21437.5
21.96,346.72,938.67,3552.5,-1365.0,21665.0
25.74,347.46,938.42,2940.0,-630.0,21945.0
30.01,348.07,938.42,2450.0,52.5,21997.5
34.89,349.04,938.91,3115.0,35.0,21332.5
39.89,350.38,939.16,3850.0,-280.0,19740.0
44.65,351.73,938.79,3867.5,-1225.0,18637.5
49.04,353.07,938.67,3780.0,-1067.5,17920.0
53.19,354.29,938.42,4375.0,-525.0,17360.0
57.34,355.39,937.69,4550.0,-752.5,16887.5
61.73,356.73,936.59,3815.0,-350.0,16170.0
66.0,358.19,935.37,3272.5,70.0,15102.5
70.27,359.66,934.03,2940.0,-175.0,13965.0
74.79,361.24,932.81,2240.0,-472.5,12915.0
79.54,362.71,932.08,1855.0,-87.5,11602.5
84.67,364.41,931.59,1995.0,350.0,10167.5
90.04,366.49,931.1,2292.5,455.0,8312.5
95.65,368.56,930.25,2240.0,332.5,6422.5
101.63,370.76,929.15,1610.0,770.0,4165.0
107.48,373.2,928.05,1260.0,822.5,1365.0
112.97,375.39,926.59,910.0,-367.5,-1592.5
117.85,377.22,925.0,-140.0,-1085.0,-4322.5
122.12,378.81,924.27,-1137.5,-525.0,-6667.5
125.54,379.91,924.15,-945.0,-332.5,-8662.5
128.22,380.88,924.15,-210.0,-892.5,-10430.0
130.3,381.49,923.66,-577.5,-927.5,-12355.0
131.88,381.74,923.17,-1540.0,-560.0,-14000.0
132.49,381.86,923.17,-2012.5,52.5,-15260.0
132.37,381.74,923.3,-1627.5,-105.0,-16205.0
131.64,381.74,922.81,-1452.5,-910.0,-16905.0
130.78,381.62,922.2,-2450.0,-735.0,-17622.5
129.81,381.37,921.71,-3412.5,-140.0,-18410.0
128.47,381.13,921.83,-3587.5,35.0,-19057.5
127.0,380.52,922.2,-3272.5,-105.0,-19495.0
125.42,380.15,922.81,-2800.0,-192.5,-19915.0
123.83,379.66,923.05,-2817.5,-52.5,-20667.5
121.76,379.18,923.05,-3272.5,-70.0,-21385.0
119.32,378.44,923.05,-3710.0,70.0,-21665.0
116.51,377.47,923.42,-4112.5,367.5,-21647.5
113.58,376.25,924.27,-4060.0,560.0,-21507.5
110.78,375.03,925.49,-3500.0,367.5,-21472.5
107.73,373.56,926.96,-2782.5,122.5,-21647.5
104.43,372.34,928.42,-2275.0,-210.0,-21770.0
101.14,371.0,929.64,-2135.0,-87.5,-21630.0
97.36,369.66,930.86,-1837.5,332.5,-21455.0
93.45,368.32,931.96,-1365.0,367.5,-20912.5
88.94,366.98,932.45,-1225.0,262.5,-20737.5
83.57,365.39,932.69,-1295.0,-402.5,-20002.5
77.59,363.8,933.06,-875.0,-647.5,-18515.0
71.37,362.22,933.18,-822.5,-332.5,-16590.0
64.78,360.63,932.81,-1540.0,-192.5,-14805.0
57.34,358.92,932.45,-2187.5,-822.5,-13387.5
49.04,356.97,932.32,-1855.0,-2257.5,-11147.5
40.14,354.41,932.81,-1207.5,-2660.0,-7367.5
31.72,351.85,933.67,-1067.5,-1470.0,-3080.0
23.91,349.53,934.76,-857.5,-87.5,1015.0
16.96,347.58,935.98,-402.5,-17.5,4462.5
11.1,345.75,937.45,542.5,-560.0,7507.5
6.34,344.28,938.67,1347.5,-455.0,10360.0
2.44,342.94,939.89,1907.5,140.0,13142.5
-0.37,341.84,940.5,2170.0,420.0,15487.5
-2.32,340.99,940.99,2485.0,17.5,17185.0
-3.66,340.38,941.23,2940.0,-560.0,18900.0
-4.15,339.89,941.35,3010.0,-297.5,20597.5
-4.03,339.53,941.72,2992.5,280.0,22172.5
-3.29,339.53,941.96,3675.0,105.0,23485.0
-1.95,339.89,941.84,4287.5,-455.0,24447.5
-0.24,340.5,941.23,3990.0,-840.0,25147.5
2.07,341.23,940.62,3657.5,-997.5,25707.5
4.88,341.84,940.25,3237.5,-735.0,26285.0
8.05,342.82,940.13,3500.0,-612.5,26512.5
11.59,343.8,939.89,4042.5,-1015.0,26635.0
15.37,344.77,939.16,4515.0,-1470.0,26617.5
19.28,345.87,937.94,4270.0,-1557.5,26530.0
23.55,346.97,936.47,3657.5,-1487.5,26530.0
28.06,348.43,934.76,3132.5,-1505.0,25672.5
32.09,349.9,932.57,2817.5,-3097.5,24990.0
36.11,351.24,929.88,1837.5,-4200.0,24832.5
40.75,352.34,927.93,-752.5,-2800.0,25025.0
45.87,353.07,927.69,-1680.0,-1260.0,24850.0
51.73,353.8,928.42,-630.0,-1452.5,24465.0
57.95,354.78,929.64,700.0,-2135.0,23117.5
64.66,355.87,930.62,1277.5,-2800.0,21525.0
71.49,356.85,931.84,1172.5,-2152.5,19897.5
78.57,357.83,933.67,1277.5,-787.5,18515.0
85.52,358.92,935.62,2415.0,105.0,17010.0
92.48,360.02,936.96,3797.5,-210.0,15102.5
99.55,361.61,937.45,4602.5,-612.5,13055.0
106.87,363.68,936.96,4567.5,175.0,10797.5
114.07,366.0,935.74,4060.0,945.0,7997.5
121.15,368.44,933.54,3360.0,402.5,4795.0
127.86,370.88,931.23,2345.0,-560.0,1505.0
134.32,373.08,929.27,1540.0,-1120.0,-1785.0
140.06,375.27,927.44,857.5,-840.0,-4462.5
145.3,377.1,925.61,-385.0,0.0,-6825.0
150.18,378.81,924.03,-1802.5,437.5,-9730.0
154.21,380.27,923.3,-2117.5,-70.0,-12670.0
157.38,381.25,922.81,-1767.5,-805.0,-15085.0
159.7,381.98,922.56,-1610.0,-735.0,-16992.5
161.28,382.47,921.83,-2082.5,-385.0,-18760.0
162.02,382.47,921.34,-2975.0,-157.5,-20300.0
162.38,382.23,921.1,-3552.5,17.5,-21665.0
162.02,381.86,921.34,-3465.0,157.5,-22802.5
161.41,381.49,921.59,-3167.5,175.0,-24167.5
160.31,381.13,921.59,-3202.5,-157.5,-25497.5
158.84,380.52,921.47,-3675.0,-262.5,-26635.0
156.89,379.79,921.47,-4165.0,87.5,-27492.5
154.33,378.93,921.59,-4585.0,507.5,-28105.0
151.28,377.71,921.83,-4462.5,280.0,-28665.0
148.11,376.37,922.08,-4235.0,-157.5,-29067.5
144.69,375.03,922.32,-4497.5,52.5,-29400.0
140.67,373.81,922.56,-4952.5,350.0,-29522.5
136.4,372.34,923.05,-5110.0,70.0,-29417.5
132.13,371.0,923.66,-5337.5,-157.5,-29592.5
127.49,369.42,924.52,-5215.0,-560.0,-29540.0
122.73,367.95,925.74,-4340.0,-822.5,-28962.5
118.1,366.37,926.71,-3797.5,-577.5,-28420.0
113.46,364.78,927.08,-4112.5,-350.0,-28070.0
108.82,363.19,927.32,-4550.0,-280.0,-27842.5
103.94,361.61,927.69,-4585.0,-577.5,-27510.0
98.82,360.02,927.93,-4760.0,-857.5,-26547.5
94.18,358.68,928.3,-5162.5,-472.5,-25585.0
89.79,357.46,928.79,-5705.0,-175.0,-25095.0
85.64,356.24,929.64,-5635.0,-840.0,-24832.5
81.5,355.02,930.62,-4725.0,-1557.5,-24517.5
77.71,353.8,931.47,-4287.5,-1575.0,-23870.0
73.93,352.7,932.2,-4200.0,-1172.5,-23502.5
70.27,351.73,932.69,-4357.5,-1347.5,-23047.5
66.86,350.87,933.42,-4007.5,-1400.0,-23187.5
63.68,350.02,934.03,-3605.0,-1820.0,-23152.5
60.51,349.16,934.4,-4322.5,-1662.5,-23100.0
57.1,348.31,934.52,-4952.5,-1557.5,-23012.5
53.19,347.21,934.89,-4567.5,-2537.5,-22382.5
49.53,345.99,935.13,-4252.5,-2852.5,-21350.0
46.36,344.77,935.5,-4497.5,-1907.5,-20720.0
43.8,343.8,936.11,-4830.0,-1487.5,-20615.0
41.24,342.58,936.72,-5022.5,-2135.0,-20737.5
38.55,341.36,937.94,-4602.5,-2485.0,-20580.0
35.5,339.89,939.64,-3972.5,-2275.0,-20055.0
32.57,338.67,940.86,-2047.5,-2100.0,-19005.0
30.01,337.45,941.6,-3430.0,-2222.5,-18935.0
27.82,336.48,942.33,-3780.0,-1960.0,-18567.5
25.62,335.5,942.82,-3710.0,-1750.0,-18707.5
23.06,334.4,943.55,-3570.0,-2205.0,-18462.5
20.01,333.18,944.16,-3570.0,-2030.0,-17990.0
16.47,331.72,945.01,-3377.5,-2432.5,-17150.0
12.44,330.13,945.74,-2607.5,-2905.0,-16345.0
8.17,328.18,946.48,-2345.0,-3290.0,-15277.5
3.42,326.11,947.21,-3062.5,-2712.5,-13685.0
-1.95,323.79,948.43,-2817.5,-2170.0,-12075.0
-7.81,321.23,949.89,-2135.0,-2450.0,-9502.5
-13.79,318.54,951.84,-1837.5,-1400.0,-6597.5
-19.52,315.49,954.41,-175.0,1260.0,-3745.0
-25.62,312.69,956.48,490.0,525.0,-1067.5
-31.48,310.12,958.31,2135.0,-1470.0,2205.0
-36.48,308.17,959.65,3990.0,-2730.0,4357.5
-41.11,306.59,960.38,3307.5,-805.0,7332.5
-45.51,305.12,960.63,2940.0,-122.5,10535.0
-49.04,303.9,960.87,3465.0,385.0,13912.5
-51.24,303.17,960.87,3815.0,507.5,16240.0
-52.58,302.8,960.63,3937.5,665.0,17867.5
-53.07,302.56,960.38,4077.5,507.5,19250.0
-52.95,302.32,959.77,4130.0,420.0,20580.0
-52.22,302.44,959.16,4130.0,595.0,21735.0
-51.0,302.68,958.43,3955.0,437.5,22855.0
-49.53,303.29,957.82,3832.5,210.0,23712.5
-47.82,304.02,957.33,3937.5,-175.0,24360.0
-45.75,304.76,956.72,4200.0,-927.5,25025.0
-43.19,305.73,956.24,4235.0,-927.5,25532.5
-40.26,306.71,955.63,3937.5,-420.0,25865.0
-37.58,307.68,955.14,4357.5,-402.5,26215.0
-35.01,308.9,954.28,5355.0,-1627.5,26565.0
-32.21,310.37,952.33,5267.5,-3027.5,26687.5
-28.79,311.59,950.01,3972.5,-4077.5,26425.0
-24.89,312.69,948.43,2397.5,-4217.5,26285.0
-20.74,313.78,948.31,2222.5,-3202.5,26565.0
-16.96,314.76,948.92,3535.0,-2940.0,26810.0
-13.18,315.86,948.92,4655.0,-3797.5,27177.5
-9.27,317.08,948.55,4620.0,-4427.5,26897.5
-5.0,318.18,948.06,3937.5,-4235.0,26810.0
-0.73,319.03,947.94,3692.5,-3832.5,26862.5
3.78,319.88,947.94,3587.5,-2817.5,26862.5
8.17,320.74,947.94,3885.0,-2520.0,26670.0
12.44,321.47,947.7,4042.5,-2940.0,26722.5
16.59,322.32,947.82,3937.5,-2327.5,26792.5
20.86,322.81,948.06,3885.0,-1312.5,27335.0
25.38,323.54,948.43,4305.0,-875.0,27282.5
29.77,324.52,948.67,5337.5,-1575.0,26635.0
34.16,325.62,948.31,6335.0,-3080.0,26302.5
38.92,326.72,947.7,5635.0,-2520.0,25987.5
43.92,327.94,946.96,4742.5,-1295.0,25287.5
48.56,329.16,946.35,4532.5,-1382.5,24587.5
53.19,330.25,946.35,4322.5,-1172.5,24150.0
57.46,331.23,946.72,5005.0,-297.5,24080.0
61.61,332.33,946.96,6072.5,-472.5,23940.0
65.88,333.3,946.23,6037.5,-717.5,23450.0
70.15,334.4,945.74,5372.5,-525.0,22942.5
74.54,335.26,945.74,5827.5,-70.0,22470.0
78.81,336.23,945.74,6212.5,332.5,21927.5
83.2,337.45,945.26,6265.0,350.0,21192.5
87.23,338.79,944.52,6352.5,70.0,20265.0
91.01,340.01,943.55,6440.0,-157.5,19652.5
94.43,341.11,942.33,6230.0,-192.5,19215.0
98.09,342.45,941.11,5792.5,192.5,18777.5
101.5,343.8,940.01,5477.5,490.0,18112.5
104.8,345.02,938.79,5337.5,192.5,17657.5
108.34,346.48,937.57,4830.0,210.0,17132.5
111.63,347.94,936.59,4655.0,210.0,16205.0
114.68,349.29,935.86,4882.5,-420.0,15522.5
117.73,350.38,935.01,5005.0,-682.5,15015.0
120.78,351.6,934.4,4602.5,262.5,14455.0
123.83,352.46,933.91,4655.0,700.0,13755.0
126.51,353.43,933.06,5180.0,-210.0,12880.0
129.08,354.41,931.96,4952.5,-682.5,12530.0
131.64,355.39,930.74,3762.5,420.0,12215.0
134.32,356.61,929.76,3325.0,1032.5,11742.5
137.13,357.95,929.03,3517.5,332.5,11007.5
140.42,359.41,928.18,3430.0,-122.5,9835.0
143.84,361.12,926.96,3342.5,-192.5,8627.5
147.38,362.71,925.98,2642.5,402.5,7472.5
151.28,364.41,924.76,2170.0,927.5,6125.0
155.06,366.12,923.54,1855.0,700.0,4585.0
159.09,367.95,922.2,1277.5,297.5,2782.5
163.36,369.78,921.1,630.0,280.0,805.0
167.38,371.49,920.37,455.0,192.5,-1277.5
170.8,372.83,919.64,192.5,-315.0,-3290.0
173.85,373.93,919.15,-297.5,-332.5,-4707.5
176.53,374.78,919.15,-875.0,857.5,-6335.0
178.85,375.52,919.51,-717.5,1277.5,-7962.5
180.56,376.25,919.76,-140.0,490.0,-9677.5
181.78,376.86,919.64,17.5,-17.5,-11427.5
182.27,377.35,919.39,-280.0,-105.0,-12757.5
182.27,377.59,918.9,-700.0,70.0,-13510.0
182.15,377.71,918.42,-1312.5,822.5,-13947.5
182.15,377.96,917.93,-1732.5,1382.5,-14980.0
182.02,378.44,917.44,-2135.0,735.0,-16345.0
181.41,378.81,916.95,-2065.0,-210.0,-17675.0
180.44,379.18,916.22,-2327.5,-455.0,-18637.5
179.22,379.18,915.73,-3150.0,-87.5,-19215.0
177.88,379.05,915.49,-3710.0,332.5,-19740.0
176.41,378.81,915.49,-3710.0,280.0,-20212.5
174.83,378.69,915.37,-3780.0,-52.5,-21087.5
173.24,378.44,915.37,-4165.0,-770.0,-22067.5
171.17,377.96,915.61,-4340.0,-1085.0,-22767.5
168.97,377.22,916.34,-4865.0,-262.5,-22837.5
166.41,376.49,917.68,-4952.5,735.0,-23047.5
163.48,375.39,918.9,-4165.0,227.5,-23275.0
160.8,374.54,920.25,-3622.5,-297.5,-23432.5
157.75,373.44,921.34,-3867.5,262.5,-23852.5
154.45,372.34,922.32,-3762.5,490.0,-23835.0
150.91,371.25,923.42,-3325.0,350.0,-23572.5
147.25,370.27,924.27,-3045.0,315.0,-23537.5
143.35,369.42,924.76,-2975.0,-105.0,-23555.0
139.32,368.32,925.13,-2572.5,-350.0,-23292.5
135.42,367.46,925.74,-2590.0,35.0,-22697.5
131.76,366.61,925.98,-3150.0,280.0,-22505.0
127.98,365.76,926.1,-3552.5,17.5,-22295.0
124.2,365.02,926.47,-3710.0,-35.0,-21910.0
120.29,364.29,927.08,-2940.0,140.0,-21735.0
116.14,363.68,927.2,-2520.0,-280.0,-21175.0
112.0,363.07,926.71,-3290.0,-542.5,-20772.5
108.09,362.34,926.35,-4620.0,-717.5,-20212.5
104.68,361.49,926.71,-5355.0,-472.5,-20037.5
101.26,360.63,928.05,-4917.5,-122.5,-19320.0
98.33,359.66,929.88,-3727.5,367.5,-18375.0
95.77,359.17,931.35,-2730.0,735.0,-18445.0
93.21,358.44,932.57,-2275.0,70.0,-18515.0
90.77,357.7,933.3,-1837.5,-35.0,-18655.0
88.08,356.97,933.91,-2012.5,87.5,-18392.5
85.16,356.36,934.28,-2012.5,52.5,-17920.0
82.35,355.87,934.52,-2100.0,87.5,-17465.0
79.67,355.51,934.64,-2187.5,70.0,-17500.0
76.86,355.26,934.52,-2205.0,-560.0,-17640.0
74.18,355.14,934.4,-2065.0,-1435.0,-17587.5
71.49,354.9,934.03,-2520.0,-1085.0,-17412.5
68.81,354.65,933.67,-2957.5,-455.0,-17482.5
66.12,354.29,933.18,-3570.0,-1102.5,-17185.0
63.56,353.68,932.81,-4095.0,-1312.5,-16800.0
61.49,353.19,932.93,-4707.5,-822.5,-16117.5
59.78,352.82,933.54,-4777.5,-105.0,-16135.0
58.19,352.34,934.52,-4165.0,-717.5,-16485.0
56.36,351.97,935.74,-2922.5,-1837.5,-16607.5
54.9,351.6,936.96,-2537.5,-1435.0,-16625.0
53.56,351.12,937.94,-2590.0,-245.0,-16817.5
52.46,350.51,938.67,-2992.5,-315.0,-17080.0
51.24,349.9,939.4,-2782.5,-770.0,-17272.5
50.26,349.41,939.89,-3045.0,-472.5,-17640.0
48.92,349.04,940.13,-2765.0,-262.5,-18287.5
47.21,348.43,940.25,-2415.0,-1015.0,-18637.5
45.02,347.94,940.01,-2222.5,-1435.0,-19022.5
42.21,347.21,939.4,-2520.0,-2205.0,-19162.5
39.04,346.11,938.42,-3797.5,-2520.0,-18795.0
35.75,344.89,938.18,-5355.0,-1732.5,-18795.0
31.96,343.19,938.67,-6090.0,-1347.5,-18305.0
27.33,341.36,940.25,-5530.0,-1120.0,-17237.5
22.08,339.16,942.08,-4497.5,-1015.0,-15487.5
16.59,336.84,944.04,-3395.0,-1715.0,-12880.0
10.86,334.4,945.87,-2152.5,-1120.0,-10622.5
5.0,331.84,947.7,-1837.5,-647.5,-8085.0
-0.85,329.4,949.28,-980.0,-805.0,-5792.5
-6.83,326.96,950.75,-70.0,-1067.5,-3762.5
-13.18,324.28,952.21,525.0,-1365.0,-1050.0
-19.28,321.59,953.67,735.0,-595.0,2380.0
-25.13,319.15,955.26,1592.5,525.0,5897.5
-30.26,317.08,956.48,2607.5,647.5,9257.5
-34.4,315.37,957.46,3307.5,577.5,11830.0
-38.06,313.91,957.94,3692.5,595.0,14105.0
-40.99,312.69,958.43,3780.0,770.0,16502.5
-43.31,311.59,958.8,4340.0,892.5,18847.5
-44.77,310.86,959.16,4742.5,1085.0,21315.0
-45.38,310.37,959.29,5215.0,1522.5,23065.0
-45.38,310.37,959.16,5740.0,1452.5,24622.5
-44.9,310.49,958.68,6142.5,892.5,25847.5
-43.92,310.73,957.94,5915.0,892.5,27090.0
-42.46,311.22,957.21,5705.0,1382.5,28332.5
-40.63,311.83,956.36,5845.0,1312.5,29382.5
-38.31,312.81,955.26,5880.0,525.0,30240.0
-35.5,313.66,954.53,5512.5,192.5,31132.5
-31.96,314.76,954.16,5600.0,1015.0,31465.0
-27.82,315.98,953.92,6212.5,1137.5,31255.0
-23.79,317.32,953.31,6685.0,52.5,31045.0
-19.52,318.66,952.58,6982.5,-280.0,30695.0
-15.62,320.01,951.6,7000.0,-297.5,30852.5
-11.71,321.35,950.38,6230.0,227.5,31325.0
-7.56,322.81,949.4,5582.5,1015.0,31535.0
-3.17,324.4,948.43,5565.0,980.0,31220.0
1.46,326.11,947.45,5897.5,-122.5,30712.5
6.1,327.81,946.6,5547.5,-367.5,30222.5
10.98,329.52,946.11,5740.0,245.0,29907.5
15.37,331.35,945.38,6387.5,17.5,29487.5
19.76,333.06,943.91,6352.5,-857.5,29102.5
24.28,334.77,942.33,5110.0,-577.5,28665.0
28.79,336.23,941.35,4270.0,175.0,28262.5
33.18,337.57,940.74,4585.0,105.0,27895.0
37.33,339.16,940.01,5215.0,-560.0,27440.0
41.36,340.75,938.91,5565.0,-1295.0,27230.0
45.75,342.33,937.81,4532.5,-700.0,26985.0
50.39,344.04,936.84,4060.0,157.5,25952.5
54.41,345.63,935.74,4550.0,-1102.5,24972.5
58.07,347.09,934.15,4585.0,-2502.5,24587.5
62.1,348.31,932.57,3237.5,-1487.5,24360.0
65.88,349.41,931.47,2765.0,-892.5,23870.0
69.66,350.63,930.49,3272.5,-2100.0,23607.5
73.57,351.85,929.15,3220.0,-2660.0,22977.5
77.35,352.95,927.69,2397.5,-2730.0,22470.0
80.76,354.04,926.22,1487.5,-2677.5,21962.5
84.18,355.02,925.13,1557.5,-3290.0,21612.5
87.47,356.12,923.78,1732.5,-4077.5,21297.5
91.01,357.22,922.08,1400.0,-4620.0,21000.0
94.55,358.07,920.25,297.5,-4707.5,20720.0
98.21,358.92,918.78,-1330.0,-4060.0,20545.0
101.99,359.41,917.93,-2310.0,-3517.5,20107.5
105.77,359.66,917.93,-2082.5,-4445.0,19495.0
110.04,359.66,918.29,-2082.5,-5285.0,18952.5
114.8,359.53,919.39,-2800.0,-4165.0,18130.0
119.56,359.05,921.59,-2292.5,-3272.5,17307.5
124.32,358.56,924.03,-1015.0,-3185.0,16537.5
129.08,358.44,926.35,717.5,-3412.5,15610.0
133.83,358.56,927.81,1977.5,-3552.5,14297.5
138.59,358.68,928.54,1977.5,-3465.0,13020.0
143.59,358.92,929.64,2257.5,-2467.5,11812.5
149.21,359.05,930.86,3097.5,-1487.5,10587.5
154.94,359.29,931.59,3552.5,-1330.0,9520.0
161.16,359.9,931.59,2747.5,-402.5,8312.5
167.26,361.12,931.1,2047.5,770.0,6370.0
173.24,362.58,930.13,1627.5,525.0,3937.5
178.85,364.29,928.91,1680.0,-210.0,1015.0
184.22,366.0,927.69,1575.0,-507.5,-1575.0
189.34,367.34,926.47,875.0,-17.5,-3990.0
193.98,368.56,925.37,122.5,700.0,-6510.0
197.76,369.42,924.52,-157.5,630.0,-8802.5
200.93,370.03,923.78,-402.5,525.0,-10727.5
203.5,370.64,923.05,-840.0,857.5,-12705.0
205.57,371.12,922.44,-1435.0,822.5,-14490.0
207.03,371.49,921.95,-1680.0,927.5,-16152.5
207.89,371.61,921.71,-1925.0,1102.5,-17885.0
207.89,371.49,921.34,-2065.0,630.0,-19302.5
207.28,371.0,921.34,-2047.5,437.5,-20212.5
205.81,370.39,921.34,-2205.0,1050.0,-20877.5
203.74,369.9,921.1,-2520.0,1260.0,-21367.5
201.42,369.42,920.73,-2135.0,-262.5,-22242.5
198.98,368.81,920.37,-2502.5,-1085.0,-22540.0
196.66,368.32,920.25,-3447.5,787.5,-22592.5
194.47,367.83,920.37,-3797.5,2362.5,-22557.5
192.27,367.46,920.61,-3605.0,1960.0,-23065.0
190.56,367.1,920.61,-2922.5,542.5,-24307.5
188.73,366.61,920.86,-2905.0,-787.5,-25760.0
186.66,366.0,921.1,-3342.5,-857.5,-26722.5
183.73,365.15,922.08,-3535.0,227.5,-26705.0
180.56,364.29,923.05,-3150.0,1487.5,-26250.0
177.39,363.56,923.54,-2905.0,1802.5,-26040.0
174.46,362.95,923.42,-3605.0,1715.0,-26477.5
171.78,362.22,923.66,-3937.5,997.5,-27387.5
168.6,361.36,924.52,-3395.0,525.0,-27912.5
165.31,360.75,925.49,-2905.0,735.0,-27912.5
161.77,360.02,925.98,-2905.0,1382.5,-27877.5
158.11,359.53,926.35,-3045.0,1575.0,-27912.5
154.45,358.92,926.71,-3097.5,1382.5,-28122.5
150.67,358.31,926.83,-2957.5,962.5,-28367.5
146.89,357.7,926.96,-2957.5,665.0,-28490.0
142.98,357.09,927.32,-3430.0,1120.0,-28945.0
139.08,356.48,928.05,-3430.0,1120.0,-28735.0
134.93,355.75,928.91,-2537.5,560.0,-28647.5
130.78,355.02,929.4,-2327.5,420.0,-28192.5
126.76,354.29,929.76,-3132.5,980.0,-28105.0
122.73,353.56,930.37,-3587.5,1365.0,-28175.0
118.34,352.58,931.23,-3062.5,700.0,-27912.5
113.83,351.73,932.08,-2310.0,-17.5,-27457.5
109.56,351.12,932.57,-1995.0,-490.0,-27212.5
105.29,350.63,933.18,-2012.5,420.0,-27160.0
100.89,350.14,933.54,-2030.0,682.5,-27037.5
96.38,349.65,933.42,-2327.5,192.5,-26827.5
91.62,349.29,933.18,-2397.5,-52.5,-26425.0
87.11,348.92,933.06,-3115.0,175.0,-25655.0
82.84,348.55,932.93,-3500.0,665.0,-25375.0
78.57,348.07,933.06,-3745.0,297.5,-25182.5
74.05,347.46,933.42,-3447.5,-227.5,-24570.0
69.42,346.97,933.79,-2747.5,-560.0,-23730.0
65.03,346.36,933.67,-2222.5,-560.0,-22960.0
60.88,345.75,933.06,-2590.0,-892.5,-22295.0
57.1,345.38,932.08,-2625.0,-1137.5,-22365.0
53.44,344.77,931.1,-4112.5,-2065.0,-22032.5
49.78,344.28,931.1,-4672.5,-2205.0,-21577.5
46.36,343.55,931.71,-4462.5,-2012.5,-21052.5
43.07,343.06,932.32,-4112.5,-2222.5,-20650.0
39.77,342.21,933.06,-4777.5,-2415.0,-20370.0
36.6,341.36,934.15,-4637.5,-2065.0,-19705.0
33.18,340.14,935.62,-4270.0,-1645.0,-19127.5
29.4,338.92,937.2,-3412.5,-1907.5,-18532.5
25.25,337.45,938.67,-3202.5,-2205.0,-17640.0
20.62,335.74,940.25,-2870.0,-2065.0,-16607.5
15.49,333.79,941.84,-2415.0,-1750.0,-15172.5
9.88,331.72,943.55,-2625.0,-1347.5,-13860.0
3.17,329.16,945.26,-1627.5,-1715.0,-11585.0
-4.27,326.23,947.21,-525.0,-1540.0,-8365.0
-12.32,323.18,949.04,-262.5,-507.5,-4462.5
-20.25,320.13,950.87,805.0,17.5,-280.0
-27.45,317.57,952.45,1767.5,525.0,3605.0
-33.92,315.37,953.67,2222.5,1032.5,7210.0
-39.65,313.54,954.53,2660.0,1277.5,10430.0
-44.65,311.95,955.26,3307.5,1172.5,13667.5
-48.8,310.61,955.75,3902.5,1452.5,16922.5
-51.73,309.64,955.99,3990.0,2187.5,19670.0
-53.8,309.03,955.99,3902.5,2485.0,21822.5
-55.14,308.66,956.24,4672.5,1907.5,23677.5
-55.88,308.42,956.24,5460.0,1207.5,25690.0
-55.75,308.66,955.99,5757.5,1540.0,27492.5
-54.78,309.03,955.26,5530.0,1942.5,29015.0
-52.95,309.64,954.53,5057.5,2275.0,30135.0
-50.51,310.37,954.28,5285.0,2065.0,30922.5
-47.46,311.22,954.16,5897.5,1855.0,31500.0
-44.16,312.56,953.92,6475.0,1627.5,31815.0
-40.63,313.78,953.31,6667.5,1295.0,32025.0
-37.09,315.13,952.45,6650.0,980.0,32357.5
-33.06,316.47,951.72,6125.0,1540.0,32585.0
-28.91,317.93,951.36,6422.5,1942.5,32655.0
-24.89,319.4,950.62,7210.0,1190.0,32672.5
-20.62,321.1,949.77,7472.5,612.5,32567.5
-16.23,323.06,948.43,7332.5,647.5,32462.5
-11.71,325.13,946.72,7035.0,770.0,32252.5
-6.95,327.2,945.01,6492.5,507.5,32287.5
-2.07,329.03,943.3,5880.0,840.0,31762.5
2.68,331.11,941.96,5530.0,892.5,31045.0
7.08,333.18,940.62,6125.0,-560.0,30677.5
11.35,335.13,939.03,6177.5,-1417.5,30450.0
16.1,337.09,937.2,4707.5,-857.5,30047.5
20.98,339.04,935.98,3640.0,-350.0,29295.0
25.86,340.87,935.25,3867.5,-560.0,28647.5
30.62,342.58,934.76,4602.5,-1330.0,28017.5
35.38,344.04,934.28,4305.0,-1015.0,27510.0
40.14,345.75,933.91,4550.0,-770.0,26617.5
44.41,347.09,933.18,5005.0,-1505.0,26215.0
48.68,348.31,932.2,3972.5,-1277.5,25952.5
53.19,349.41,931.71,2940.0,-192.5,25357.5
57.46,350.51,931.84,3325.0,-280.0,24867.5
61.61,351.6,932.32,4252.5,-770.0,24220.0
65.64,353.07,932.08,5162.5,-1225.0,23642.5
69.54,354.53,931.35,4900.0,-1015.0,23415.0
73.69,356.0,930.25,4182.5,-297.5,22960.0
77.84,357.46,928.91,3920.0,-192.5,22102.5
81.74,358.92,927.2,3500.0,-1015.0,21157.5
85.4,360.14,925.37,2520.0,-1347.5,20492.5
88.69,361.24,924.27,2100.0,-1155.0,20107.5
91.99,362.34,923.42,2257.5,-1417.5,19932.5
95.53,363.19,922.56,1382.5,-1295.0,19635.0
99.31,364.29,922.32,700.0,-717.5,18830.0
102.97,365.27,922.56,1750.0,-1505.0,17867.5
106.38,366.24,922.56,2747.5,-2677.5,17080.0
109.92,367.22,921.71,1960.0,-2537.5,16607.5
113.46,367.71,920.86,385.0,-1015.0,16100.0
117.12,368.2,920.73,-105.0,-577.5,15347.5
120.66,368.56,921.1,315.0,-1417.5,14455.0
124.2,368.93,921.59,1102.5,-1925.0,13650.0
127.86,369.17,922.08,997.5,-1347.5,13195.0
131.64,369.54,922.44,770.0,-385.0,12285.0
135.54,370.03,922.81,1067.5,-840.0,11147.5
139.57,370.64,922.93,1155.0,-1225.0,9940.0
143.84,371.12,923.17,770.0,-595.0,8855.0
148.6,371.73,923.78,647.5,665.0,7682.5
153.72,372.83,924.64,1382.5,1207.5,6195.0
159.09,374.17,925.13,2205.0,1155.0,4077.5
164.7,375.88,924.88,2537.5,787.5,1452.5
170.19,377.59,924.03,2380.0,472.5,-1557.5
174.83,379.18,922.56,1697.5,175.0,-4147.5
178.61,380.4,920.86,665.0,420.0,-6370.0
181.66,381.25,919.39,-472.5,700.0,-8592.5
183.49,381.86,918.29,-787.5,-70.0,-10465.0
184.59,382.1,917.44,-735.0,-945.0,-11742.5
185.2,382.1,916.95,-1610.0,-87.5,-12862.5
185.2,382.1,916.83,-2467.5,875.0,-14035.0
184.46,381.86,917.07,-2152.5,297.5,-14787.5
183.61,381.37,917.68,-1575.0,-227.5,-15505.0
182.39,380.88,918.05,-1592.5,122.5,-16030.0
180.93,380.4,918.42,-1592.5,560.0,-16450.0
179.22,379.91,918.66,-1557.5,805.0,-16817.5
177.39,379.54,918.66,-1610.0,840.0,-17115.0
175.19,378.93,918.66,-1750.0,595.0,-17482.5
173.0,378.44,918.54,-1785.0,280.0,-17937.5
170.43,377.83,918.42,-1697.5,-157.5,-18182.5
167.75,377.35,918.17,-2187.5,-350.0,-18165.0
165.31,376.98,917.93,-2922.5,35.0,-18130.0
162.75,376.49,918.05,-3500.0,70.0,-18270.0
160.06,375.88,918.66,-3080.0,-262.5,-18235.0
157.38,375.27,919.64,-2345.0,-87.5,-17972.5
155.18,374.78,920.37,-2082.5,525.0,-17990.0
152.99,374.3,920.73,-2380.0,367.5,-18340.0
151.04,373.81,921.1,-2257.5,-17.5,-18882.5
148.96,373.44,921.47,-2362.5,52.5,-19092.5
146.77,373.2,921.59,-2572.5,507.5,-19162.5
144.57,372.95,921.34,-2975.0,472.5,-19250.0
142.5,372.59,921.34,-3762.5,700.0,-19582.5
140.3,372.34,921.95,-3640.0,577.5,-19932.5
137.86,371.98,922.56,-2922.5,70.0,-20317.5
135.54,371.61,922.81,-2782.5,70.0,-20265.0
132.98,371.49,923.05,-2975.0,665.0,-20475.0
130.54,371.37,922.81,-3325.0,577.5,-20650.0
128.1,371.0,922.44,-3885.0,175.0,-21017.5
125.54,370.39,922.32,-4095.0,-280.0,-21472.5
122.98,369.9,922.56,-3692.5,-350.0,-22120.0
120.29,369.42,922.93,-4567.5,-770.0,-22365.0
117.36,368.68,923.54,-4200.0,-875.0,-21787.5
114.56,368.07,924.39,-4620.0,192.5,-21297.5
112.12,367.59,925.25,-4707.5,962.5,-21350.0
109.31,366.73,926.1,-4742.5,2205.0,-20772.5
106.75,366.0,926.96,-5390.0,3657.5,-20177.5
104.68,365.63,927.93,-4305.0,1697.5,-21070.0
102.6,365.02,928.54,-3132.5,-717.5,-22802.5
100.16,364.17,929.03,-2957.5,-1750.0,-23257.5
97.36,363.32,929.64,-3867.5,-140.0,-23082.5
94.43,362.22,930.37,-4147.5,910.0,-22540.0
91.26,361.36,930.86,-3395.0,-192.5,-22522.5
88.08,360.51,931.1,-2817.5,-1365.0,-22837.5
84.91,359.53,931.35,-3255.0,-1207.5,-23152.5
81.5,358.44,931.96,-3430.0,-630.0,-23152.5
77.47,357.22,932.69,-3815.0,-840.0,-22417.5
73.32,356.0,933.42,-3500.0,-962.5,-21682.5
68.93,354.78,934.15,-3605.0,-770.0,-21105.0
64.17,353.31,934.89,-3290.0,-1155.0,-20405.0
59.05,351.85,935.62,-2590.0,-1610.0,-19740.0
53.19,350.02,935.98,-2327.5,-2275.0,-19215.0
46.36,347.82,936.59,-2607.5,-2852.5,-16817.5
39.28,345.5,937.45,-3045.0,-1417.5,-14420.0
32.09,342.94,938.79,-3115.0,-892.5,-11812.5
24.28,340.38,940.25,-2170.0,-1505.0,-8855.0
16.59,337.7,941.84,-1032.5,-1575.0,-5600.0
9.27,335.01,943.3,-542.5,-770.0,-2222.5
2.44,332.69,945.01,-157.5,-280.0,1592.5
-3.29,330.74,946.72,717.5,192.5,4917.5
-8.42,329.28,948.06,1627.5,-17.5,7560.0
-12.93,327.94,949.16,2467.5,-752.5,9922.5
-16.96,326.72,950.01,3377.5,-1260.0,12652.5
-20.01,325.62,950.5,3675.0,-682.5,15452.5
-21.84,324.89,950.75,3465.0,420.0,17692.5
-22.69,324.28,950.87,3482.5,647.5,19302.5
-22.69,324.15,950.75,4095.0,-17.5,20440.0
-22.2,324.15,950.5,4655.0,-542.5,21490.0
-21.35,324.52,949.77,4550.0,-665.0,22645.0
-19.76,325.13,949.04,4060.0,-980.0,23362.5
-17.81,325.74,948.43,3972.5,-1697.5,23992.5
-15.74,326.11,948.43,3325.0,-175.0,25217.5
-13.18,326.72,948.79,4042.5,595.0,26215.0
-10.37,327.57,948.92,5530.0,-385.0,26792.5
-7.08,328.79,948.43,6177.5,-1242.5,26810.0
-3.42,330.01,947.33,5390.0,-1067.5,26687.5
0.37,331.23,946.23,4182.5,-332.5,26740.0
4.27,332.33,945.74,4445.0,-192.5,26687.5
8.05,333.43,945.26,4952.5,-770.0,26687.5
11.71,334.65,944.4,5022.5,-1207.5,26827.5
15.74,335.74,943.67,4515.0,-822.5,26897.5
20.01,336.84,943.18,4007.5,-70.0,26897.5
24.03,337.94,942.94,4427.5,-122.5,26565.0
28.06,339.16,942.45,5565.0,-1592.5,26302.5
31.84,340.38,941.72,5372.5,-1627.5,26355.0
35.87,341.48,941.11,4795.0,-472.5,26897.5
40.26,342.45,940.62,4305.0,350.0,26442.5
44.41,343.55,940.13,4935.0,-980.0,25532.5
48.56,344.65,939.64,5705.0,-2485.0,25112.5
52.7,345.87,938.67,5495.0,-1942.5,24937.5
56.85,347.21,937.57,4690.0,-1050.0,24850.0
61.24,348.55,936.35,4147.5,-1295.0,24290.0
65.76,349.9,935.25,4305.0,-2502.5,23222.5
70.64,351.36,934.03,5495.0,-5845.0,21402.5
75.88,352.95,932.81,4760.0,-6457.5,20300.0
80.76,354.29,932.08,3202.5,-3727.5,19705.0
85.64,355.51,931.84,3360.0,-2870.0,19495.0
90.77,356.85,931.84,4462.5,-4847.5,18567.5
96.87,358.31,931.59,6125.0,-10885.0,15242.5
103.94,360.14,931.71,10062.5,-21350.0,9222.5
110.78,361.97,932.2,13265.0,-28595.0,4182.5
116.88,363.68,932.69,13422.5,-27125.0,2870.0
122.12,365.27,932.93,11532.5,-18497.5,4620.0
126.88,366.98,932.2,8995.0,-8662.5,7455.0
131.52,368.81,930.37,5827.5,-192.5,9835.0
136.27,370.76,927.69,3255.0,4497.5,10850.0
141.28,372.83,924.64,1977.5,3692.5,10062.5
146.64,375.03,921.83,1452.5,1592.5,7665.0
151.89,377.35,919.76,910.0,350.0,5320.0
156.89,379.54,918.17,210.0,1137.5,3867.5
161.77,381.62,917.2,-280.0,2660.0,2695.0
166.41,383.45,916.22,-612.5,3657.5,1190.0
170.8,385.03,915.12,-1155.0,4130.0,-595.0
175.19,386.62,914.15,-1067.5,2747.5,-2782.5
179.22,388.2,913.17,-910.0,647.5,-5635.0
182.88,389.67,912.32,-962.5,-857.5,-8330.0
185.68,391.01,911.34,-1522.5,-490.0,-10255.0
187.88,392.11,910.49,-2187.5,367.5,-11567.5
189.59,392.84,909.63,-2782.5,437.5,-12845.0
190.81,393.33,908.78,-2747.5,-227.5,-14560.0
191.3,393.45,907.92,-3395.0,-997.5,-16082.5
191.05,393.33,907.56,-4112.5,-892.5,-17272.5
190.32,392.84,907.68,-4655.0,-525.0,-17500.0
188.98,392.35,908.29,-4340.0,-105.0,-17832.5
187.27,391.86,909.02,-4112.5,140.0,-17745.0
185.44,391.25,909.63,-4515.0,1417.5,-17552.5
183.61,390.64,910.24,-4392.5,1820.0,-17587.5
181.78,390.03,910.49,-4777.5,2327.5,-17797.5
180.07,389.55,910.61,-5372.5,2520.0,-18217.5
178.12,388.94,911.1,-5145.0,2240.0,-18882.5
175.92,388.2,911.46,-4830.0,1645.0,-19162.5
173.85,387.59,911.83,-4987.5,1505.0,-19425.0
171.9,386.98,912.07,-5460.0,1680.0,-19792.5
169.95,386.25,912.56,-5635.0,1820.0,-20282.5
167.75,385.52,912.93,-5617.5,1802.5,-20615.0
165.55,384.67,913.41,-5897.5,2030.0,-20895.0
163.24,383.81,914.27,-6282.5,2555.0,-21000.0
160.8,382.84,915.49,-6160.0,2765.0,-21437.5
158.36,381.86,916.59,-5110.0,1330.0,-22190.0
155.92,381.01,917.44,-4585.0,52.5,-22960.0
153.23,380.03,918.29,-4847.5,-122.5,-23485.0
150.43,378.93,919.39,-4952.5,665.0,-23695.0
147.38,377.96,920.37,-4340.0,1627.5,-23590.0
144.45,376.86,921.47,-4340.0,2135.0,-23100.0
141.4,375.76,922.56,-4882.5,2765.0,-23327.5
138.23,374.78,923.17,-4637.5,1907.5,-23765.0
134.81,373.69,923.78,-4252.5,682.5,-24290.0
131.27,372.59,924.39,-4445.0,227.5,-24657.5
127.37,371.37,925.13,-4760.0,945.0,-24395.0
123.22,370.03,925.98,-4532.5,1347.5,-23765.0
118.95,368.81,926.71,-4742.5,1557.5,-23170.0
114.56,367.46,927.69,-3990.0,1050.0,-22417.5
110.04,366.37,928.3,-3290.0,1260.0,-22225.0
105.04,365.27,928.18,-3132.5,-52.5,-22330.0
99.19,363.8,927.69,-3342.5,-1085.0,-22137.5
92.6,361.97,927.2,-4987.5,-1102.5,-20580.0
85.77,359.9,927.69,-6160.0,-280.0,-18480.0
78.45,357.58,928.91,-6037.5,52.5,-16047.5
71.0,355.14,930.74,-5285.0,175.0,-13772.5
63.56,352.46,932.93,-4252.5,-402.5,-11497.5
56.24,349.65,935.5,-3132.5,-647.5,-9135.0
49.04,346.72,938.3,-1557.5,-525.0,-6685.0
42.21,343.67,941.11,-1225.0,175.0,-3290.0
35.75,340.99,943.79,-455.0,1102.5,105.0
29.89,338.55,946.23,1330.0,1085.0,3150.0
24.89,336.72,948.18,3045.0,630.0,5897.5
20.74,335.62,949.4,4077.5,507.5,7997.5
17.08,334.77,950.01,4812.5,490.0,10150.0
13.91,334.16,950.14,4952.5,822.5,12495.0
11.35,333.55,949.77,4795.0,1400.0,14682.5
9.39,333.06,949.4,4480.0,1925.0,16502.5
7.93,332.82,948.92,4900.0,1417.5,17972.5
7.2,332.94,948.18,4970.0,910.0,19547.5
7.32,333.3,947.7,4427.5,1645.0,20772.5
7.81,334.04,947.21,4742.5,1645.0,21752.5
8.91,334.89,946.48,5687.5,542.5,22540.0
10.61,335.99,945.26,5495.0,192.5,23100.0
12.81,337.09,943.91,4445.0,577.5,23450.0
15.25,338.18,942.94,4427.5,437.5,23730.0
18.06,339.4,941.84,4760.0,-192.5,23677.5
20.98,340.38,940.38,3937.5,-840.0,23555.0
24.03,341.48,939.64,2800.0,-402.5,23695.0
27.08,342.58,939.77,3430.0,17.5,23747.5
30.01,343.55,939.89,4655.0,-595.0,24097.5
33.18,344.53,939.64,4655.0,-630.0,24307.5
36.6,345.75,939.16,4480.0,-402.5,23940.0
39.53,346.72,938.67,5057.5,-1260.0,23607.5
42.09,347.82,937.45,5390.0,-2310.0,23765.0
44.9,348.8,935.74,4340.0,-1960.0,24097.5
47.82,349.65,934.28,2730.0,-962.5,24482.5
51.12,350.38,933.42,2152.5,-455.0,24570.0
54.41,351.12,933.06,2555.0,-910.0,24465.0
57.71,351.85,932.81,3377.5,-2012.5,24255.0
61.0,352.58,932.45,3237.5,-2030.0,24185.0
64.42,353.31,932.08,2607.5,-1312.5,24255.0
68.08,354.04,931.84,2502.5,-1050.0,24290.0
71.86,354.53,931.47,2292.5,-1137.5,24220.0
75.88,355.14,931.47,1960.0,-770.0,23835.0
80.03,355.63,931.84,2817.5,-1207.5,23415.0
84.42,356.24,932.32,3920.0,-1802.5,23065.0
88.94,357.09,932.32,4182.5,-1522.5,22347.5
93.45,357.95,931.59,3640.0,-1207.5,21542.5
98.09,358.8,930.74,2870.0,-962.5,20860.0
102.48,359.66,930.13,2625.0,-542.5,20317.5
106.99,360.63,929.64,2695.0,-175.0,19705.0
111.87,361.61,928.79,2415.0,52.5,18812.5
116.88,362.71,928.05,1750.0,402.5,17587.5
122.12,363.68,927.69,1505.0,402.5,16170.0
127.25,364.78,927.57,1627.5,-122.5,14752.5
132.86,365.88,927.69,2012.5,-350.0,13282.5
138.47,367.1,927.81,2292.5,192.5,11707.5
144.45,368.68,927.93,2397.5,997.5,10237.5
150.67,370.39,927.44,2187.5,1330.0,7455.0
156.4,371.98,926.71,2555.0,-52.5,4690.0
161.77,373.69,925.86,3132.5,-910.0,2432.5
166.77,375.52,924.15,2432.5,35.0,192.5
171.53,377.47,921.83,700.0,420.0,-2082.5
176.05,379.18,919.64,-875.0,-87.5,-4550.0
180.19,380.64,918.29,-1785.0,-332.5,-7262.5
183.49,381.86,917.44,-1942.5,-717.5,-9695.0
186.29,382.71,916.83,-1925.0,-980.0,-11515.0
188.49,383.45,916.46,-2257.5,-525.0,-13457.5
190.08,383.69,916.1,-2625.0,-455.0,-15155.0
191.05,383.69,915.85,-3027.5,-560.0,-16800.0
191.3,383.32,915.73,-3412.5,-682.5,-18147.5
190.93,382.84,915.98,-3780.0,-280.0,-19057.5
190.08,382.35,916.22,-3955.0,105.0,-19792.5
189.1,381.86,916.71,-3955.0,140.0,-20650.0
187.64,381.13,917.2,-3797.5,-87.5,-21437.5
186.17,380.4,917.68,-3885.0,157.5,-22102.5
184.46,379.66,918.17,-4165.0,770.0,-22680.0
182.63,378.93,918.78,-3972.5,1172.5,-23432.5
180.07,378.08,919.03,-4462.5,2747.5,-23240.0
177.51,377.22,919.03,-4602.5,2117.5,-23870.0
174.7,376.37,918.9,-4322.5,297.5,-24762.5
171.78,375.27,919.15,-4830.0,332.5,-25165.0
168.85,374.42,919.51,-5355.0,857.5,-25410.0
165.43,373.32,920.12,-5530.0,1522.5,-25462.5
161.77,372.34,920.73,-5372.5,1767.5,-25287.5
158.11,371.49,920.86,-4935.0,857.5,-25760.0
154.21,370.39,920.61,-5267.5,-822.5,-26145.0
150.18,369.05,920.61,-6545.0,-315.0,-26075.0
145.91,367.59,921.34,-6702.5,595.0,-25602.5
141.52,366.0,922.32,-6457.5,717.5,-24797.5
137.37,364.29,923.42,-6755.0,1505.0,-24255.0
133.22,362.83,924.64,-6597.5,1435.0,-23940.0
128.83,361.24,925.98,-6300.0,1207.5,-23607.5
124.68,359.9,927.2,-5722.5,857.5,-23327.5
120.41,358.44,928.42,-5705.0,805.0,-23065.0
116.39,356.97,929.76,-5267.5,297.5,-22872.5
112.24,355.51,931.1,-4515.0,35.0,-22470.0
108.21,353.92,932.45,-4182.5,612.5,-21962.5
104.19,352.46,933.67,-3850.0,770.0,-21595.0
100.41,351.36,934.52,-3832.5,105.0,-21175.0
96.62,350.26,935.13,-3710.0,-507.5,-21035.0
92.84,349.16,935.5,-3535.0,-455.0,-20492.5
89.18,347.94,935.98,-3657.5,70.0,-19932.5
85.52,346.72,936.59,-3797.5,0.0,-19512.5
81.62,345.75,936.96,-3185.0,-297.5,-19565.0
77.59,344.53,937.45,-3552.5,-1050.0,-18830.0
73.44,343.31,937.94,-3920.0,-682.5,-17902.5
68.81,341.84,938.91,-3780.0,-525.0,-16730.0
63.93,340.26,940.25,-2870.0,-980.0,-15610.0
58.32,338.55,941.35,-2012.5,-1592.5,-14315.0
52.46,336.48,942.33,-1995.0,-1785.0,-12565.0
46.12,334.28,943.55,-1680.0,-1365.0,-10867.5
39.28,331.96,944.89,-1400.0,-1417.5,-8312.5
32.33,329.4,946.23,-1277.5,-1067.5,-5180.0
25.38,326.84,947.45,-1435.0,-227.5,-1907.5
18.67,324.52,949.16,-717.5,157.5,1260.0
12.2,321.96,950.99,1050.0,-367.5,4515.0
6.1,319.64,952.7,2765.0,-805.0,7892.5
0.98,317.57,954.04,3447.5,-175.0,11322.5
-3.17,315.98,955.02,3570.0,770.0,14420.0
-6.1,315.0,955.63,3955.0,910.0,16940.0
-8.3,314.52,955.75,4340.0,227.5,18742.5
-9.64,314.15,955.63,4480.0,-297.5,20317.5
-10.49,314.03,955.5,5180.0,-735.0,22032.5
-10.74,314.03,955.26,5582.5,-455.0,24132.5
-10.0,314.03,955.02,5425.0,507.5,25935.0
-8.3,314.15,954.65,4847.5,1505.0,26950.0
-5.98,314.52,954.53,5250.0,1190.0,27475.0
-3.42,315.13,954.04,5915.0,122.5,27685.0
-0.85,315.86,953.31,5740.0,-262.5,27912.5
1.59,316.47,952.7,5320.0,-280.0,28507.5
3.78,316.96,952.58,5862.5,-455.0,29575.0
5.98,317.57,952.33,6860.0,-542.5,30870.0
8.78,318.3,951.72,7227.5,-280.0,31762.5
11.96,319.27,950.62,7122.5,-420.0,32060.0
15.37,320.49,949.04,6930.0,-840.0,32147.5
18.54,321.84,946.96,6825.0,-1417.5,32182.5
21.59,323.3,944.04,6265.0,-2502.5,32690.0
25.38,324.64,941.11,4375.0,-2450.0,33250.0
29.65,325.74,938.91,2310.0,-1295.0,33775.0
34.4,326.72,938.3,1907.5,-910.0,33950.0
39.41,327.69,938.79,2852.5,-1540.0,33897.5
44.77,328.67,939.52,4322.5,-2275.0,33565.0
50.26,329.89,939.89,5005.0,-2380.0,33057.5
56.0,331.23,939.77,5057.5,-2345.0,32550.0
61.98,332.21,939.52,4462.5,-1942.5,32217.5
68.08,333.06,939.64,4270.0,-1067.5,31850.0
74.79,334.04,940.5,4795.0,-157.5,31570.0
81.86,335.26,940.86,5810.0,245.0,29767.5
88.69,336.72,940.25,6440.0,-1627.5,28017.5
95.65,338.18,939.28,6002.5,-2135.0,26547.5
102.85,339.65,938.67,4795.0,-210.0,25270.0
110.29,341.23,938.91,4445.0,1505.0,24045.0
117.73,343.06,939.03,5652.5,1330.0,22067.5
125.29,345.38,938.67,6667.5,175.0,19652.5
132.74,347.94,937.45,6282.5,-105.0,17255.0
139.93,350.38,935.98,5285.0,805.0,15032.5
147.01,353.07,934.28,5215.0,1172.5,12687.5
154.09,355.87,932.32,4935.0,840.0,10220.0
161.16,358.8,929.76,3955.0,647.5,7210.0
167.87,361.73,927.2,2800.0,175.0,3762.5
173.85,364.41,924.76,1890.0,-315.0,560.0
179.1,366.73,922.81,1032.5,-455.0,-2117.5
183.49,368.68,921.1,-192.5,-122.5,-4585.0
187.15,370.27,920.0,-1050.0,227.5,-6720.0
190.32,371.73,919.39,-1102.5,245.0,-8907.5
192.76,372.83,918.66,-1575.0,-192.5,-11217.5
194.47,373.44,918.29,-1960.0,-577.5,-13265.0
195.2,373.81,918.17,-2030.0,-472.5,-14542.5
195.2,373.81,918.42,-2135.0,157.5,-15470.0
194.71,373.93,918.29,-2205.0,-17.5,-16310.0
193.86,373.81,918.17,-2450.0,-490.0,-17150.0
192.76,373.56,918.17,-3045.0,-262.5,-18095.0
191.3,373.2,918.54,-3465.0,52.5,-18742.5
189.59,372.59,919.15,-3062.5,-70.0,-19285.0
187.51,371.98,919.76,-2327.5,-280.0,-19722.5
185.44,371.37,919.88,-2537.5,-87.5,-20090.0
183.12,370.39,919.88,-3482.5,420.0,-20597.5
180.44,369.54,920.37,-3622.5,210.0,-20772.5
177.39,368.56,921.1,-3220.0,87.5,-20632.5
174.46,367.71,921.95,-3412.5,595.0,-20597.5
171.29,366.98,922.69,-3447.5,525.0,-20580.0
168.24,366.24,923.78,-2992.5,332.5,-20510.0
165.19,365.51,924.64,-2485.0,350.0,-20597.5
162.38,365.02,925.0,-2292.5,280.0,-20615.0
159.82,364.66,925.25,-2555.0,490.0,-20790.0
157.5,364.29,925.25,-2992.5,770.0,-21140.0
154.94,364.05,925.61,-3202.5,752.5,-21367.5
152.5,363.68,925.86,-3045.0,525.0,-21595.0
150.06,363.44,926.22,-2747.5,280.0,-21805.0
147.62,363.32,926.22,-2765.0,17.5,-22137.5
145.3,363.07,925.98,-3395.0,87.5,-22645.0
142.98,362.71,926.1,-3867.5,0.0,-23047.5
140.54,362.34,926.47,-3972.5,35.0,-23432.5
137.98,361.85,926.96,-3937.5,70.0,-23782.5
135.18,361.36,927.57,-3447.5,-472.5,-24097.5
132.49,361.0,927.81,-3517.5,-507.5,-24220.0
129.81,360.39,928.05,-3990.0,-122.5,-24500.0
126.76,359.78,928.3,-4130.0,-402.5,-24902.5
123.46,358.92,928.66,-3832.5,-1137.5,-25025.0
119.93,358.07,929.03,-3377.5,-1365.0,-25007.5
116.51,357.22,929.4,-3937.5,-892.5,-24272.5
113.22,356.48,930.01,-4305.0,-350.0,-24027.5
110.04,355.75,930.62,-4130.0,-612.5,-23975.0
106.75,355.14,931.1,-3885.0,-1277.5,-24220.0
103.46,354.53,931.35,-3675.0,-1417.5,-24430.0
99.8,353.68,931.84,-4322.5,-910.0,-24237.5
96.14,352.58,932.45,-4620.0,-525.0,-23520.0
92.23,351.36,933.06,-4410.0,-647.5,-22715.0
88.45,350.14,933.91,-4445.0,-490.0,-22242.5
84.42,348.92,935.01,-3937.5,-805.0,-22015.0
80.4,347.58,936.47,-3010.0,-1242.5,-21490.0
76.62,346.48,937.45,-2415.0,-1050.0,-20772.5
72.83,345.38,938.06,-3430.0,-892.5,-20755.0
68.56,344.16,938.79,-3482.5,-1015.0,-19967.5
63.93,342.82,939.64,-2817.5,-1085.0,-18882.5
58.56,341.36,940.38,-2712.5,-1085.0,-17465.0
53.07,339.77,940.86,-2240.0,-997.5,-16187.5
47.34,337.94,941.6,-2397.5,-1015.0,-14490.0
41.24,335.74,943.06,-2222.5,-700.0,-12407.5
34.53,333.43,944.77,-1067.5,-770.0,-9817.5
27.33,330.99,946.48,122.5,-945.0,-6545.0
20.5,328.79,947.7,437.5,-192.5,-3307.5
13.91,326.84,948.92,787.5,210.0,-490.0
7.81,325.01,949.89,1225.0,-315.0,2222.5
1.95,323.42,950.99,2012.5,-840.0,5127.5
-3.17,321.84,951.97,2520.0,-315.0,8557.5
-7.08,320.62,952.58,2800.0,1085.0,11515.0
-10.13,319.52,953.06,2940.0,1435.0,13685.0
-12.32,318.79,953.31,3622.5,682.5,15557.5
-13.91,318.3,953.55,4235.0,192.5,17115.0
-15.01,318.18,953.31,4305.0,122.5,18865.0
-15.49,318.42,952.82,4340.0,87.5,20370.0
-15.37,318.79,952.33,4462.5,17.5,21770.0
-14.64,319.15,951.84,4462.5,-52.5,22960.0
-13.3,319.64,951.23,4235.0,122.5,23975.0
-11.59,320.25,950.99,4252.5,280.0,24692.5
-9.76,321.1,950.75,5162.5,-105.0,25287.5
-7.81,321.84,950.14,5652.5,-927.5,26320.0
-5.25,322.81,949.4,4865.0,-350.0,27072.5
-2.44,323.79,948.67,4882.5,87.5,27230.0
0.24,325.01,947.7,5460.0,-1172.5,27475.0
3.17,326.11,946.35,5232.5,-1977.5,27860.0
6.22,327.08,945.13,4305.0,-1400.0,28332.5
9.52,327.94,944.4,3762.5,-857.5,28962.5
13.05,328.79,943.91,3990.0,-665.0,29225.0
16.71,329.77,943.43,4515.0,-1277.5,29435.0
20.74,330.86,942.82,4672.5,-1750.0,29470.0
24.89,331.96,942.08,4340.0,-1732.5,29312.5
29.04,333.06,941.47,4305.0,-1767.5,29172.5
33.43,334.16,940.62,4515.0,-2100.0,29207.5
38.06,335.01,939.77,3832.5,-1785.0,29155.0
42.82,335.99,939.28,3132.5,-1172.5,28875.0
47.46,336.96,939.16,3482.5,-1295.0,28542.5
52.09,337.94,938.91,4182.5,-1890.0,28385.0
56.97,338.92,938.3,3657.5,-1435.0,28140.0
61.98,339.77,938.06,3115.0,-892.5,27807.5
67.1,340.62,938.55,3885.0,-822.5,27177.5
71.74,341.72,938.91,5337.5,-1522.5,26582.5
76.37,342.82,938.3,5775.0,-2012.5,26320.0
81.37,343.92,936.96,4147.5,-1120.0,25480.0
86.01,344.89,936.23,3342.5,-927.5,24692.5
90.52,345.99,935.74,4130.0,-1382.5,24027.5
94.67,346.85,934.76,4620.0,-2082.5,23485.0
99.06,347.7,933.54,3307.5,-1802.5,23082.5
103.46,348.55,932.81,2467.5,-892.5,22225.0
107.6,349.41,932.32,3220.0,-1680.0,21332.5
111.51,350.26,931.47,2852.5,-2327.5,20895.0
115.53,350.87,930.86,840.0,-472.5,20545.0
119.56,351.36,931.1,437.5,1260.0,20212.5
123.71,351.97,931.84,2135.0,402.5,19810.0
128.34,352.7,932.08,3045.0,-280.0,18777.5
133.47,353.43,932.08,2642.5,-87.5,17517.5
139.08,354.41,932.08,3097.5,87.5,16292.5
145.55,355.75,932.2,3552.5,490.0,14892.5
152.5,357.46,931.59,3325.0,1050.0,12495.0
159.45,359.53,930.74,3307.5,437.5,9905.0
166.04,361.36,929.64,3167.5,-192.5,6650.0
172.02,363.19,928.54,2905.0,-577.5,4060.0
177.63,364.78,927.32,2450.0,-70.0,2030.0
182.88,366.37,925.86,1155.0,980.0,-227.5
187.64,367.83,924.76,455.0,752.5,-3115.0
191.42,369.17,923.91,910.0,-647.5,-5740.0
194.35,370.27,922.93,717.5,-945.0,-7560.0
196.91,371.12,921.95,-840.0,157.5,-8977.5
198.86,371.61,921.71,-1925.0,962.5,-10605.0
200.32,371.86,922.08,-1295.0,542.5,-12337.5
200.93,372.1,922.69,-262.5,-297.5,-13632.5
201.06,372.1,922.93,-140.0,0.0,-14595.0
200.57,371.98,923.05,-437.5,770.0,-15487.5
199.84,371.73,922.69,-560.0,805.0,-16362.5
198.98,371.49,922.08,-1032.5,647.5,-17045.0
197.88,371.25,921.47,-1907.5,1207.5,-17920.0
196.54,371.12,921.34,-2415.0,1260.0,-18620.0
194.83,370.88,921.34,-1977.5,787.5,-19145.0
193.25,370.88,921.1,-1942.5,822.5,-19617.5
191.54,370.76,920.86,-2607.5,1137.5,-20265.0
189.95,370.51,920.86,-3220.0,1225.0,-21017.5
188.37,370.27,921.34,-3045.0,1190.0,-21857.5
186.42,370.15,921.71,-2572.5,997.5,-22575.0
184.46,369.9,921.83,-2590.0,997.5,-23240.0
182.15,369.78,921.71,-3062.5,1067.5,-23852.5
179.58,369.42,921.71,-3535.0,945.0,-24377.5
176.9,368.93,921.95,-3412.5,682.5,-24815.0
174.22,368.56,922.2,-3202.5,665.0,-24955.0
171.29,367.95,922.32,-3902.5,2135.0,-24797.5
168.36,367.59,922.32,-5390.0,4532.5,-24657.5
165.43,367.22,922.56,-4742.5,2327.5,-25550.0
162.26,366.61,922.93,-3710.0,-245.0,-26985.0
159.09,366.0,923.3,-3482.5,-1155.0,-27685.0
155.43,365.27,923.78,-4375.0,70.0,-27720.0
151.65,364.41,924.27,-4830.0,717.5,-27650.0
147.5,363.44,925.0,-4427.5,245.0,-27492.5
143.35,362.46,925.74,-4252.5,157.5,-27160.0
138.96,361.36,926.35,-4252.5,490.0,-26950.0
134.69,360.27,927.08,-4760.0,1242.5,-26372.5
130.3,359.17,927.93,-4567.5,910.0,-26285.0
125.78,358.07,928.91,-3867.5,175.0,-26215.0
121.15,356.97,929.88,-3482.5,-87.5,-25935.0
116.27,355.87,930.49,-3622.5,-210.0,-25602.5
111.26,354.53,931.1,-3920.0,-245.0,-24990.0
106.14,353.07,932.32,-3535.0,52.5,-23537.5
101.02,351.85,933.54,-3132.5,1102.5,-22470.0
96.01,350.63,934.52,-2712.5,875.0,-21787.5
90.89,349.53,935.37,-2327.5,35.0,-20912.5
85.52,348.43,936.11,-1855.0,-52.5,-20055.0
79.91,347.33,936.47,-1662.5,-315.0,-19040.0
73.69,345.99,936.72,-1942.5,-507.5,-17745.0
66.98,344.28,937.2,-2100.0,-717.5,-16082.5
59.41,342.09,938.3,-1592.5,-1102.5,-13632.5
51.48,340.14,939.4,-857.5,-945.0,-10500.0
43.68,338.18,940.38,-472.5,-332.5,-7192.5
36.23,336.23,940.86,-805.0,157.5,-4200.0
29.16,334.4,941.72,-962.5,350.0,-1295.0
22.45,332.57,943.06,140.0,-70.0,1995.0
16.35,330.86,944.28,1172.5,70.0,5477.5
11.1,329.52,945.38,1662.5,682.5,8435.0
6.95,328.42,946.23,2222.5,542.5,10937.5
3.54,327.81,946.6,2730.0,105.0,12950.0
0.73,327.2,946.6,2870.0,-17.5,14805.0
-1.83,326.59,946.6,2835.0,-227.5,16922.5
-3.78,325.98,946.6,3185.0,-367.5,19180.0
-5.0,325.62,946.72,3307.5,105.0,21402.5
-5.25,325.5,946.84,3132.5,490.0,23082.5
-4.64,325.74,946.96,3535.0,227.5,24255.0
-3.42,326.23,947.09,3745.0,-140.0,25112.5
-1.71,326.84,947.21,3955.0,-367.5,25882.5
0.37,327.45,947.45,4672.5,-507.5,26617.5
2.93,328.06,947.33,4900.0,-297.5,27492.5
5.98,328.67,947.21,5092.5,122.5,27877.5
9.03,329.4,946.72,5547.5,-192.5,28070.0
12.2,330.13,945.74,5547.5,-735.0,28507.5
15.49,331.23,944.4,5180.0,-770.0,28857.5
18.91,332.57,942.69,4655.0,-770.0,29102.5
22.57,333.91,940.74,3955.0,-1295.0,29242.5
26.84,335.26,939.03,2730.0,-1172.5,29190.0
31.35,336.6,937.94,2590.0,-1347.5,28910.0
36.11,338.06,937.2,3115.0,-1960.0,28700.0
40.99,339.77,936.23,3920.0,-2520.0,28070.0
45.87,341.72,934.28,4270.0,-3745.0,27352.5
50.75,343.8,931.23,3272.5,-4672.5,26740.0
56.0,345.26,927.93,560.0,-4427.5,26985.0
62.1,346.48,926.1,-2520.0,-2117.5,26600.0
68.93,347.58,925.98,-3027.5,-1155.0,24955.0
75.76,348.43,926.96,-1890.0,-3167.5,23362.5
82.96,349.41,928.79,-1155.0,-3325.0,21770.0
90.65,350.38,931.1,-962.5,-1277.5,20160.0
98.7,351.6,933.54,-525.0,227.5,18375.0
106.87,352.82,935.86,857.5,175.0,15837.5
115.41,354.17,937.94,2065.0,-87.5,12792.5
123.34,355.51,939.52,2975.0,227.5,9677.5
130.54,356.85,940.38,4200.0,87.5,6895.0
136.88,358.31,939.89,4445.0,-17.5,4480.0
142.98,359.9,938.42,3640.0,157.5,1960.0
148.6,361.61,936.35,2485.0,350.0,-805.0
153.48,362.95,934.03,980.0,385.0,-3622.5
157.38,364.17,932.32,-262.5,280.0,-5985.0
160.43,365.15,931.35,-402.5,192.5,-7857.5
162.87,366.0,930.86,-227.5,192.5,-9467.5
164.82,366.73,930.25,-350.0,192.5,-11007.5
166.41,367.46,929.4,-1050.0,350.0,-12740.0
167.26,367.59,928.91,-1750.0,472.5,-14192.5
167.51,367.71,928.91,-1715.0,560.0,-15347.5
167.14,367.71,928.91,-1207.5,297.5,-16397.5
166.41,367.46,928.54,-1312.5,-210.0,-17167.5
165.31,367.22,928.18,-2117.5,175.0,-17990.0
163.72,366.73,928.3,-2625.0,840.0,-18760.0
161.41,366.0,928.54,-1995.0,420.0,-19092.5
158.36,365.27,928.42,-1802.5,-35.0,-18952.5
155.18,364.41,928.05,-2397.5,192.5,-18637.5
152.01,363.56,927.93,-3097.5,437.5,-18427.5
149.21,362.58,928.18,-3115.0,297.5,-18637.5
146.4,361.73,928.42,-2835.0,-175.0,-18865.0
143.47,361.0,928.54,-2940.0,-210.0,-18812.5
140.79,360.39,928.91,-3517.5,367.5,-18567.5
138.35,359.9,929.64,-3500.0,542.5,-18585.0
135.91,359.41,930.49,-3220.0,0.0,-18847.5
133.47,358.92,931.35,-2677.5,-612.5,-19075.0
131.27,358.44,932.08,-2240.0,-385.0,-19110.0
129.08,357.95,932.57,-2275.0,35.0,-19215.0
127.12,357.22,932.81,-2502.5,297.5,-19652.5
124.93,356.61,933.06,-2362.5,-122.5,-20020.0
122.49,355.87,933.18,-2695.0,-105.0,-20212.5
119.8,355.26,933.18,-2940.0,-70.0,-20247.5
116.88,354.65,933.3,-3115.0,-140.0,-20107.5
113.95,354.04,933.3,-2940.0,-472.5,-19880.0
111.02,353.56,933.3,-3167.5,-437.5,-19600.0
108.34,353.07,933.3,-3412.5,-367.5,-19792.5
105.65,352.58,933.3,-3587.5,-770.0,-20195.0
102.48,351.85,933.3,-3797.5,-1330.0,-20580.0
98.82,350.99,933.79,-3482.5,-1820.0,-19477.5
95.77,350.26,934.15,-3780.0,-297.5,-18515.0
92.96,349.53,934.52,-4147.5,140.0,-18147.5
90.16,348.8,935.01,-3937.5,-805.0,-18497.5
87.11,348.07,935.86,-3290.0,-1505.0,-18462.5
83.69,346.97,936.47,-2975.0,-1417.5,-17867.5
80.15,345.87,936.96,-3150.0,-997.5,-16905.0
76.62,344.77,937.69,-2905.0,-1120.0,-15890.0
73.32,343.8,938.3,-2782.5,-1190.0,-15487.5
69.78,342.58,938.91,-2677.5,-1330.0,-15015.0
66.12,341.36,939.64,-2712.5,-1592.5,-14262.5
61.73,339.89,940.62,-2835.0,-1330.0,-13317.5
56.61,337.94,941.96,-2695.0,-1032.5,-11970.0
50.75,335.62,943.43,-2187.5,-1435.0,-9975.0
44.41,333.18,945.13,-1067.5,-1557.5,-7017.5
38.06,330.62,946.84,-612.5,-770.0,-3692.5
31.96,328.3,948.43,-192.5,122.5,-822.5
25.86,326.11,949.89,1067.5,-420.0,1942.5
20.5,324.28,951.23,2362.5,-892.5,4795.0
15.49,322.69,952.33,2782.5,-315.0,7630.0
11.35,321.47,952.82,3010.0,157.5,10430.0
8.17,320.62,952.94,3342.5,315.0,12880.0
6.1,320.13,952.82,3377.5,402.5,14630.0
4.76,319.88,952.45,3500.0,-140.0,16012.5
3.9,319.88,951.97,3675.0,-682.5,17325.0
3.66,319.88,951.48,3885.0,-770.0,18830.0
4.03,319.88,951.11,3412.5,-157.5,20195.0
4.88,320.01,950.87,3237.5,-70.0,21175.0
6.22,320.13,951.11,3377.5,-525.0,21927.5
7.93,320.37,951.72,4270.0,-840.0,22610.0
9.88,320.74,952.21,5092.5,-665.0,23467.5
12.08,321.35,952.33,5442.5,-385.0,24010.0
14.4,322.08,951.97,5775.0,-542.5,24587.5
16.96,322.93,950.99,5845.0,-875.0,24885.0
19.76,323.79,949.89,5250.0,-1277.5,25217.5
22.94,324.52,949.04,4620.0,-1207.5,25655.0
26.35,325.5,948.92,4760.0,-910.0,25917.5
30.26,326.59,948.79,5302.5,-700.0,25882.5
34.28,327.94,948.55,5967.5,-1067.5,25585.0
38.55,329.16,947.94,5985.0,-1155.0,25095.0
42.82,330.38,947.21,6002.5,-1190.0,24692.5
46.85,331.35,946.48,6037.5,-1627.5,24342.5
50.51,332.33,945.74,6142.5,-1365.0,24535.0
54.05,333.3,944.89,5880.0,-262.5,25042.5
57.34,334.52,943.79,5495.0,210.0,25270.0
60.88,335.87,942.45,5670.0,-665.0,25532.5
64.66,337.09,940.86,4970.0,-647.5,24622.5
68.32,338.18,939.52,4252.5,-1365.0,24185.0
71.98,339.28,938.67,4305.0,-1382.5,23905.0
75.52,340.38,938.06,4445.0,-875.0,23747.5
78.93,341.36,937.2,4392.5,-927.5,23817.5
82.59,342.45,936.35,4182.5,-875.0,23695.0
86.5,343.55,935.5,3867.5,-857.5,23345.0
90.65,344.53,934.76,3920.0,-1312.5,22942.5
95.28,345.5,934.4,3587.5,-1050.0,22417.5
100.16,346.6,934.28,3395.0,-420.0,21490.0
105.04,347.58,934.64,3745.0,-577.5,20492.5
110.04,348.8,935.01,4445.0,-717.5,19495.0
114.92,350.02,935.25,4795.0,-245.0,18445.0
119.8,351.36,934.89,5092.5,-367.5,17272.5
124.81,352.82,934.28,4882.5,-507.5,16205.0
130.3,354.17,933.67,4252.5,560.0,14770.0
135.66,355.75,933.06,4130.0,945.0,12967.5
141.03,357.34,932.32,4655.0,210.0,11200.0
146.28,359.29,931.1,4585.0,0.0,9502.5
151.65,361.36,929.52,3657.5,577.5,7577.5
156.89,363.56,927.93,2817.5,875.0,5495.0
162.02,365.63,926.22,2222.5,455.0,3307.5
166.9,367.71,924.64,1575.0,227.5,910.0
171.53,369.66,923.3,1085.0,175.0,-1470.0
175.44,371.37,922.08,525.0,210.0,-3727.5
178.73,372.83,920.98,105.0,-87.5,-5880.0
181.29,374.17,920.0,-262.5,-420.0,-7857.5
183.24,375.15,919.03,-1067.5,-420.0,-9555.0
184.71,376.0,918.17,-1767.5,-140.0,-10885.0
185.56,376.49,917.68,-2030.0,0.0,-12127.5
185.93,376.74,917.32,-2222.5,-297.5,-13387.5
185.56,376.86,916.95,-2607.5,-437.5,-14700.0
184.59,376.61,917.07,-2730.0,-770.0,-15242.5
183.24,376.25,917.32,-2747.5,-367.5,-15417.5
181.78,375.88,917.56,-2835.0,17.5,-15505.0
180.44,375.39,917.68,-2975.0,-140.0,-16082.5
178.85,375.03,917.93,-3360.0,-577.5,-16765.0
177.14,374.54,918.42,-3500.0,-577.5,-17342.5
175.19,373.93,919.03,-3272.5,-455.0,-17325.0
173.36,373.32,919.64,-3202.5,70.0,-17255.0
171.78,372.83,920.0,-3237.5,385.0,-17727.5
170.31,372.59,920.25,-3115.0,-175.0,-18462.5
168.36,372.22,920.37,-3045.0,-770.0,-19110.0
166.41,371.98,920.25,-3377.5,-962.5,-19460.0
164.21,371.61,920.0,-4217.5,-805.0,-19652.5
162.02,371.12,920.0,-4620.0,-875.0,-19915.0
159.7,370.51,920.37,-4462.5,-1207.5,-20037.5
157.5,369.78,920.86,-4637.5,-875.0,-20107.5
155.55,368.93,921.95,-4742.5,-192.5,-20265.0
153.6,368.07,923.17,-4182.5,0.0,-20615.0
151.77,367.22,924.15,-3727.5,-437.5,-21105.0
149.82,366.49,925.0,-3832.5,-595.0,-21612.5
147.86,365.76,925.98,-3885.0,-437.5,-21980.0
145.42,364.9,927.08,-3990.0,-70.0,-22102.5
142.98,364.05,928.3,-3517.5,52.5,-22172.5
140.42,363.32,929.4,-2887.5,-52.5,-22312.5
137.62,362.46,930.25,-2450.0,-70.0,-22382.5
134.93,361.73,930.86,-2450.0,245.0,-22277.5
132.25,361.0,931.35,-2660.0,752.5,-22365.0
129.2,360.27,931.84,-2327.5,490.0,-22505.0
126.03,359.53,932.08,-2100.0,140.0,-22365.0
122.73,358.92,932.2,-2345.0,367.5,-22312.5
119.19,358.07,932.32,-2712.5,420.0,-22207.5
115.41,357.34,932.57,-2782.5,157.5,-21805.0
111.39,356.48,933.06,-2660.0,192.5,-21367.5
106.99,355.63,933.42,-2135.0,-87.5,-20860.0
102.36,354.78,933.54,-1925.0,-612.5,-19897.5
97.72,353.68,933.54,-2520.0,-402.5,-18777.5
93.33,352.58,934.03,-2852.5,315.0,-17710.0
89.06,351.6,934.52,-2590.0,437.5,-16992.5
84.67,350.75,934.89,-2327.5,-262.5,-16467.5
80.28,349.65,935.5,-2380.0,-490.0,-15522.5
75.76,348.68,935.98,-2380.0,-262.5,-14910.0
70.88,347.46,936.72,-2012.5,-892.5,-13737.5
65.64,346.11,937.45,-1505.0,-1347.5,-11427.5
60.51,344.77,938.18,-1662.5,87.5,-9467.5
55.27,343.43,939.03,-1400.0,-87.5,-7805.0
49.53,341.84,939.89,-700.0,-1120.0,-6107.5
43.43,340.14,940.99,-105.0,-1470.0,-3675.0
37.09,338.31,942.08,332.5,-945.0,-542.5
31.35,336.6,942.94,525.0,70.0,2852.5
26.35,335.01,943.79,665.0,490.0,5635.0
22.2,333.79,944.77,1225.0,70.0,7857.5
19.03,332.82,945.74,2310.0,-210.0,9992.5
16.71,332.33,946.72,3027.5,157.5,11970.0
15.25,332.08,946.84,3220.0,420.0,13650.0
14.64,332.21,946.72,3202.5,455.0,14752.5
14.27,332.45,946.35,3447.5,-192.5,15645.0
14.27,332.82,945.62,3675.0,-962.5,16660.0
14.76,333.18,944.65,3045.0,-542.5,17727.5
15.74,333.79,943.91,2660.0,-192.5,18480.0
16.96,334.4,943.3,2695.0,-595.0,19145.0
18.54,335.01,942.94,2712.5,-840.0,19547.5
20.5,335.74,942.69,2852.5,-1120.0,19897.5
22.45,336.35,942.33,2905.0,-1277.5,20335.0
24.77,336.96,942.08,2852.5,-1137.5,20737.5
27.21,337.45,941.72,2695.0,-1067.5,21000.0
29.65,337.94,941.47,2642.5,-1172.5,21192.5
32.21,338.43,941.35,2870.0,-1225.0,21420.0
34.77,338.79,941.47,2992.5,-822.5,21927.5
37.45,339.4,941.35,3167.5,-717.5,22155.0
40.26,340.14,941.23,3115.0,-1155.0,22400.0
43.19,340.87,941.11,3185.0,-1207.5,22347.5
46.12,341.6,940.74,3500.0,-1575.0,22347.5
49.29,342.21,940.25,3465.0,-1872.5,22592.5
52.83,342.7,940.13,2887.5,-682.5,22505.0
56.0,343.31,940.38,3640.0,-595.0,22295.0
59.05,343.67,939.89,4672.5,-2030.0,22487.5
62.22,344.04,938.91,3587.5,-1540.0,22837.5
65.76,344.65,938.55,2607.5,-140.0,22522.5
68.93,345.26,938.3,3447.5,-1015.0,22470.0
72.22,345.87,937.81,3955.0,-1890.0,22347.5
75.64,346.48,937.2,3010.0,-1347.5,22295.0
79.06,346.97,936.96,2975.0,-787.5,22102.5
82.72,347.58,936.84,3797.5,-1312.5,21910.0
86.25,348.19,936.23,3710.0,-1225.0,21630.0
90.04,348.92,935.74,3395.0,-1050.0,21105.0
93.57,349.41,935.25,3622.5,-1767.5,20737.5
97.11,349.77,935.25,3727.5,-1575.0,20702.5
100.53,350.26,935.25,4060.0,-700.0,21192.5
104.43,351.12,935.13,4602.5,-175.0,21262.5
109.19,352.21,934.15,4462.5,-437.5,20072.5
114.56,353.43,932.93,3587.5,-1435.0,18515.0
120.41,354.78,932.32,2485.0,-542.5,16537.5
126.03,356.24,932.08,2625.0,175.0,14805.0
131.52,357.83,931.59,3377.5,-577.5,13527.5
137.74,359.53,930.74,2852.5,-105.0,11987.5
144.2,361.36,929.88,1995.0,857.5,9712.5
150.67,363.07,929.27,1942.5,630.0,7105.0
157.01,365.02,928.54,2152.5,210.0,4532.5
162.99,366.85,927.44,1872.5,175.0,1872.5
168.6,368.68,926.22,1085.0,192.5,-840.0
173.36,370.27,924.88,367.5,17.5,-3430.0
177.39,371.49,924.03,-157.5,-87.5,-5530.0
180.8,372.34,923.3,-665.0,122.5,-7542.5
183.61,373.08,922.81,-1015.0,262.5,-9677.5
185.56,373.56,922.69,-1347.5,367.5,-11305.0
186.78,373.93,923.05,-1365.0,752.5,-12670.0
187.51,374.17,923.3,-857.5,665.0,-13825.0
187.88,374.3,923.05,-735.0,542.5,-14910.0
188.25,374.54,922.69,-1487.5,1050.0,-16030.0
188.49,374.78,922.32,-2047.5,1452.5,-17430.0
188.37,374.91,922.2,-2047.5,1190.0,-18865.0
188.0,375.03,921.83,-2030.0,700.0,-20020.0
187.39,375.03,921.47,-2520.0,1102.5,-21175.0
186.54,374.91,920.98,-3115.0,1400.0,-22242.5
185.44,374.66,920.73,-3500.0,1172.5,-23257.5
184.1,374.3,920.86,-3377.5,857.5,-24325.0
182.51,373.93,920.98,-3517.5,612.5,-25287.5
180.8,373.56,921.22,-3780.0,805.0,-26215.0
178.61,373.08,921.59,-3780.0,857.5,-27177.5
175.92,372.47,921.71,-3675.0,630.0,-27807.5
173.0,371.73,921.83,-4095.0,560.0,-28367.5
169.58,370.88,921.95,-4410.0,612.5,-28665.0
166.16,369.9,922.32,-4725.0,857.5,-28857.5
162.5,368.93,922.93,-4900.0,752.5,-29330.0
158.6,367.83,923.78,-4515.0,87.5,-29627.5
154.57,366.73,924.76,-4042.5,-210.0,-29680.0
150.55,365.76,925.74,-3867.5,420.0,-29697.5
146.28,364.54,926.35,-3832.5,630.0,-29662.5
141.76,363.19,926.96,-4042.5,525.0,-29522.5
137.25,361.85,927.69,-3815.0,490.0,-29242.5
132.74,360.63,928.3,-3745.0,647.5,-29102.5
127.86,359.41,928.79,-3850.0,262.5,-28875.0
122.85,358.44,929.03,-3955.0,-385.0,-28857.5
117.61,357.34,929.52,-3902.5,-1015.0,-28472.5
112.0,356.0,930.13,-3535.0,-1102.5,-27230.0
106.26,354.9,930.74,-3395.0,-192.5,-26215.0
100.53,353.56,931.35,-3185.0,-437.5,-25165.0
94.92,352.21,932.08,-3097.5,-472.5,-24132.5
89.18,350.87,932.69,-3097.5,-682.5,-23327.5
83.2,349.53,933.42,-3045.0,-980.0,-22067.5
77.23,347.94,934.52,-3290.0,-455.0,-20510.0
70.88,346.48,935.86,-2870.0,-70.0,-19040.0
64.05,344.77,936.96,-2030.0,-717.5,-17290.0
57.1,342.94,938.06,-1767.5,-1242.5,-15102.5
49.9,340.87,939.52,-1820.0,-630.0,-12512.5
42.58,338.67,941.35,-1120.0,-17.5,-9870.0
35.01,336.72,942.94,227.5,-665.0,-7122.5
27.33,334.65,944.16,1260.0,-1452.5,-4130.0
19.89,332.57,945.01,1172.5,-927.5,-542.5
12.81,330.62,945.99,1155.0,402.5,2992.5
6.34,329.03,946.72,1732.5,577.5,6807.5
0.98,327.69,947.57,2537.5,595.0,10027.5
-3.17,326.96,947.82,3657.5,175.0,12757.5
-6.1,326.59,947.33,3622.5,-70.0,15067.5
-7.93,326.59,946.72,2590.0,402.5,16747.5
-9.15,326.59,946.6,2537.5,332.5,18235.0
-10.0,326.72,946.72,3430.0,-472.5,19775.0
-10.25,326.96,946.6,4112.5,-1032.5,21245.0
-9.88,327.33,946.23,4060.0,-1085.0,22767.5
-8.66,327.69,945.74,3290.0,-157.5,24045.0
-6.95,328.18,945.62,2905.0,385.0,24937.5
-4.76,328.91,945.62,3570.0,-192.5,25340.0
-2.56,329.64,945.5,4532.5,-1417.5,25655.0
0.0,330.5,945.13,4742.5,-1610.0,26460.0
2.93,331.35,944.28,4182.5,-630.0,27037.5
6.1,332.33,943.3,3780.0,-437.5,27300.0
9.27,333.18,942.33,4340.0,-1715.0,27580.0
12.69,334.28,941.23,4147.5,-1960.0,27895.0
16.35,335.62,940.13,3465.0,-1610.0,28070.0
20.25,336.84,939.03,2992.5,-1767.5,28140.0
24.4,338.06,938.42,2607.5,-2065.0,27965.0
28.67,339.16,937.94,2887.5,-2170.0,27877.5
33.18,340.14,937.94,3272.5,-2082.5,27790.0
37.7,341.11,937.57,3605.0,-2065.0,27527.5
42.21,341.84,936.96,3307.5,-2117.5,27177.5
46.6,342.7,935.98,2782.5,-2117.5,26862.5
51.12,343.31,935.25,2310.0,-1960.0,26670.0
55.39,343.8,934.76,2467.5,-2310.0,26425.0
59.66,344.53,934.52,2432.5,-2485.0,26512.5
64.17,345.38,934.28,2852.5,-2572.5,26197.5
68.69,346.24,933.79,2887.5,-2887.5,25602.5
72.96,346.97,933.06,2520.0,-3062.5,25182.5
77.35,347.58,932.32,2117.5,-2555.0,25130.0
81.74,348.19,931.84,2012.5,-2100.0,25077.5
86.5,348.8,931.47,1907.5,-1767.5,25340.0
91.62,349.53,930.49,1837.5,-1260.0,24220.0
96.87,350.38,929.15,1137.5,-2415.0,23187.5
102.48,351.48,928.18,367.5,-2870.0,22487.5
108.95,352.34,928.05,-542.5,-1330.0,21227.5
115.9,353.31,928.66,-805.0,-647.5,19740.0
123.46,354.41,930.13,-105.0,-437.5,17727.5
131.52,355.63,931.96,805.0,87.5,15172.5
139.57,356.97,933.54,2012.5,-35.0,12302.5
147.13,358.44,934.52,3412.5,-647.5,9310.0
154.45,360.02,934.64,3762.5,-805.0,6685.0
161.41,361.36,934.03,3202.5,140.0,4235.0
168.12,362.95,932.93,2520.0,665.0,1382.5
174.22,364.41,931.59,1907.5,52.5,-1662.5
179.34,365.76,930.25,1225.0,-262.5,-4812.5
183.73,366.98,929.15,717.5,-157.5,-7192.5
187.39,367.95,928.18,280.0,245.0,-9030.0
190.32,368.93,927.2,-332.5,945.0,-11060.0
192.76,369.9,926.22,-577.5,542.5,-13107.5
194.47,370.39,925.49,-1085.0,52.5,-15207.5
195.2,370.64,924.88,-1697.5,140.0,-16800.0
195.2,370.64,924.88,-1820.0,525.0,-17762.5
194.83,370.39,925.0,-1610.0,875.0,-18410.0
194.22,370.03,925.0,-2117.5,1540.0,-19337.5
193.25,369.66,925.13,-2537.5,1732.5,-20440.0
191.91,369.29,925.61,-2152.5,1575.0,-21437.5
190.44,368.93,925.86,-1697.5,1312.5,-22260.0
188.98,368.68,925.61,-1925.0,1417.5,-23117.5
187.39,368.44,925.13,-2660.0,1470.0,-24255.0
185.44,367.95,924.64,-3167.5,1120.0,-25217.5
183.24,367.34,924.64,-3132.5,892.5,-25742.5
180.93,366.85,925.0,-3220.0,1382.5,-26180.0
178.49,366.49,925.0,-3325.0,1295.0,-26967.5
175.56,366.0,925.13,-3605.0,315.0,-27842.5
172.26,365.39,925.49,-4042.5,157.5,-28367.5
168.73,364.54,925.98,-4112.5,542.5,-28490.0
165.19,363.56,926.83,-4007.5,682.5,-28612.5
161.41,362.46,927.69,-3552.5,472.5,-28910.0
157.26,361.24,928.42,-3185.0,437.5,-28840.0
153.23,360.02,928.91,-3307.5,875.0,-28647.5
148.96,358.92,929.4,-3605.0,1190.0,-28630.0
144.69,357.95,929.88,-3500.0,735.0,-28612.5
140.18,356.97,930.49,-3202.5,420.0,-28525.0
135.66,356.12,930.98,-3062.5,385.0,-28420.0
131.15,355.26,931.35,-3045.0,210.0,-28297.5
126.39,354.41,931.84,-2852.5,-70.0,-27685.0
121.51,353.56,932.2,-2817.5,402.5,-27370.0
116.39,352.58,932.45,-2730.0,17.5,-26880.0
111.26,351.85,932.57,-2730.0,-507.5,-26267.5
105.77,350.87,932.57,-2800.0,-437.5,-25550.0
100.04,349.9,932.45,-2695.0,-945.0,-24640.0
94.06,348.92,932.2,-3045.0,-1207.5,-23415.0
87.96,347.82,932.2,-3745.0,-892.5,-22085.0
81.74,346.48,932.57,-3780.0,-997.5,-20650.0
75.64,345.02,933.3,-3465.0,-1592.5,-19110.0
69.05,343.43,934.28,-3150.0,-1645.0,-17570.0
61.98,341.72,935.37,-2765.0,-1697.5,-15575.0
54.53,339.65,936.59,-2590.0,-1470.0,-13002.5
46.85,337.45,938.18,-2257.5,-1277.5,-9957.5
39.04,335.01,940.13,-1575.0,-962.5,-6667.5
31.48,332.45,942.08,-875.0,-577.5,-3272.5
24.03,330.01,944.28,210.0,-437.5,-52.5
16.96,327.94,946.23,1557.5,-770.0,3570.0
10.61,325.98,947.7,2275.0,-332.5,7332.5
5.25,324.4,948.92,2607.5,700.0,10692.5
0.85,323.18,949.65,3272.5,787.5,13597.5
-2.56,322.2,950.26,3920.0,297.5,16065.0
-5.12,321.59,950.5,4270.0,122.5,18305.0
-6.83,321.35,950.5,4690.0,17.5,20300.0
-8.17,321.1,950.38,4865.0,35.0,22382.5
-8.66,321.23,950.01,5005.0,297.5,24342.5
-8.42,321.59,949.28,4952.5,332.5,25917.5
-7.44,322.08,948.67,4917.5,17.5,27125.0
-5.73,322.69,947.94,4952.5,-157.5,28192.5
-3.42,323.3,947.45,4602.5,157.5,29120.0
-0.73,324.28,947.21,5110.0,262.5,29575.0
1.95,325.25,946.48,6125.0,-1050.0,30170.0
5.37,326.47,945.26,6177.5,-1610.0,30835.0
9.15,327.81,943.79,4900.0,-682.5,31045.0
13.05,329.03,942.57,4130.0,-630.0,31045.0
17.08,330.01,941.84,4585.0,-1365.0,31342.5
21.35,331.11,941.23,4812.5,-1260.0,31587.5
25.86,332.33,940.25,4410.0,-1050.0,31570.0
30.5,333.43,939.4,3902.5,-1277.5,31342.5
35.26,334.52,939.03,4182.5,-1435.0,31220.0
40.14,335.74,938.42,4672.5,-1452.5,31150.0
45.26,337.33,937.45,4952.5,-1837.5,30677.5
50.51,339.16,935.86,5127.5,-2572.5,30082.5
55.63,340.99,933.54,4637.5,-3272.5,29662.5
61.12,342.7,931.1,2852.5,-2817.5,29925.0
67.1,344.28,929.15,1382.5,-1890.0,28525.0
72.96,345.75,927.57,1172.5,-4130.0,27510.0
79.18,346.97,926.71,910.0,-4672.5,26425.0
85.77,347.94,926.47,157.5,-3132.5,25287.5
92.6,348.8,927.2,-420.0,-2327.5,24237.5
99.43,349.53,928.66,332.5,-2012.5,22680.0
106.02,350.14,930.86,2100.0,-2467.5,21332.5
112.73,350.75,932.57,2905.0,-2152.5,20002.5
119.32,351.6,934.03,2870.0,-910.0,18515.0
125.78,352.46,935.25,3622.5,-402.5,16817.5
131.76,353.56,935.74,4847.5,-822.5,15067.5
137.62,354.9,935.25,4900.0,-857.5,13212.5
142.98,356.24,934.03,4375.0,-857.5,11480.0
148.47,357.58,932.69,3692.5,-297.5,10080.0
154.09,359.17,931.35,3167.5,682.5,8260.0
159.58,361.12,929.52,3010.0,350.0,6072.5
164.82,363.19,927.32,2310.0,-402.5,3692.5
169.95,365.15,925.0,945.0,-542.5,1312.5
174.83,366.73,923.3,-525.0,-35.0,-1032.5
179.1,368.2,922.32,-1032.5,140.0,-3237.5
182.88,369.17,922.08,-1190.0,35.0,-5005.0
186.17,370.15,922.32,-1260.0,560.0,-7192.5
188.98,370.88,922.56,-1120.0,542.5,-9152.5
190.93,371.37,922.81,-805.0,140.0,-10815.0
192.52,371.61,923.17,-770.0,420.0,-12197.5
193.61,371.49,923.3,-1190.0,1225.0,-13457.5
194.22,371.49,923.66,-1242.5,1540.0,-14805.0
194.22,371.37,923.78,-822.5,1137.5,-15907.5
193.86,371.12,923.66,-735.0,787.5,-16922.5
193.0,371.0,923.05,-1137.5,787.5,-17972.5
191.78,370.88,922.44,-1732.5,752.5,-18655.0
190.32,370.76,921.83,-2327.5,1015.0,-19320.0
188.61,370.64,921.59,-2712.5,1050.0,-19897.5
186.9,370.27,921.34,-2975.0,945.0,-20685.0
184.95,370.03,921.34,-2852.5,665.0,-21315.0
182.88,369.66,921.47,-3255.0,752.5,-21752.5
180.56,369.29,921.59,-3465.0,1032.5,-22242.5
178.0,368.93,921.83,-3202.5,665.0,-22522.5
175.56,368.56,921.83,-3272.5,472.5,-23065.0
173.0,368.07,921.83,-3710.0,525.0,-23590.0
170.31,367.34,921.95,-4182.5,525.0,-24010.0
167.38,366.61,922.32,-4270.0,647.5,-24325.0
164.33,365.88,922.56,-4340.0,577.5,-24535.0
161.16,365.15,923.05,-4375.0,280.0,-24657.5
157.99,364.54,923.54,-4270.0,105.0,-24832.5
154.57,363.68,924.15,-4200.0,105.0,-24815.0
151.16,362.83,924.76,-4182.5,227.5,-24797.5
147.38,361.97,925.37,-4095.0,87.5,-24902.5
143.47,360.88,925.74,-4025.0,-490.0,-24797.5
139.57,359.9,926.22,-4322.5,-490.0,-24482.5
135.42,358.8,926.71,-4445.0,-157.5,-24027.5
131.39,357.83,927.2,-4427.5,-210.0,-23712.5
127.37,356.73,927.57,-4497.5,-630.0,-23625.0
123.34,356.0,927.81,-4830.0,-1172.5,-23800.0
119.07,354.9,928.3,-4742.5,-1540.0,-23135.0
114.68,353.68,929.15,-4462.5,-840.0,-22137.5
110.17,352.58,929.76,-4410.0,-367.5,-21262.5
105.53,351.48,930.25,-4095.0,-1207.5,-20597.5
100.65,350.26,930.62,-4305.0,-1907.5,-20037.5
95.4,348.68,931.47,-4830.0,-2100.0,-19127.5
89.3,346.97,932.69,-4690.0,-2100.0,-17745.0
82.84,344.89,934.28,-3832.5,-2450.0,-15592.5
76.13,342.7,935.86,-3167.5,-1855.0,-13055.0
69.3,340.26,937.2,-2975.0,-1312.5,-10640.0
62.22,337.57,938.67,-2607.5,-1837.5,-7980.0
55.39,334.77,940.38,-1960.0,-1855.0,-4830.0
48.43,332.57,942.21,-735.0,-1365.0,-1365.0
42.21,330.5,943.67,-332.5,-420.0,2520.0
37.09,328.91,945.38,-892.5,1225.0,5477.5
32.82,327.81,947.82,245.0,1557.5,7700.0
29.28,326.96,950.5,2205.0,1260.0,9800.0
26.6,326.23,952.45,4112.5,1662.5,11497.5
24.28,325.37,952.94,5232.5,1802.5,13265.0
22.33,324.64,951.72,4725.0,1837.5,15050.0
20.86,324.03,950.01,3430.0,2030.0,16817.5
19.76,323.79,948.92,2572.5,2275.0,18602.5
19.4,323.67,948.67,2695.0,2642.5,20352.5
19.64,323.67,948.92,3080.0,2625.0,21805.0
20.74,323.54,949.4,3325.0,2502.5,22662.5
22.57,323.79,950.38,4112.5,2485.0,22767.5
24.4,323.91,951.11,5565.0,1872.5,23030.0
26.23,324.03,951.36,6230.0,1872.5,23537.5
27.94,324.4,950.99,6965.0,1487.5,24150.0
29.77,324.76,949.77,7455.0,455.0,25217.5
32.09,325.25,947.82,6352.5,857.5,26057.5
34.89,326.23,945.99,4602.5,1400.0,26267.5
37.82,327.57,944.89,4200.0,385.0,26215.0
40.87,329.28,944.28,5022.5,-507.5,25970.0
44.04,331.11,943.67,5617.5,-1137.5,25882.5
47.46,332.69,942.69,5687.5,-2012.5,25847.5
51.36,333.79,941.96,5460.0,-1960.0,25900.0
55.63,335.01,941.6,6370.0,-1365.0,25147.5
59.54,336.11,940.13,7665.0,-3587.5,24132.5
62.95,337.21,937.69,6072.5,-3902.5,24027.5
66.73,338.67,935.5,3762.5,-1732.5,24150.0
70.15,339.89,933.79,2835.0,-455.0,24430.0
73.81,341.23,932.45,2677.5,-1662.5,24447.5
77.84,342.45,931.35,2135.0,-2222.5,23782.5
81.98,343.43,930.74,1365.0,-2135.0,23047.5
85.89,344.04,930.86,1417.5,-2152.5,22452.5
88.94,344.28,931.47,2257.5,-2590.0,22085.0
91.01,343.8,931.96,3080.0,-3675.0,22330.0
92.72,343.06,932.57,3097.5,-3552.5,23485.0
94.67,342.21,933.79,2992.5,-1557.5,24587.5
96.5,341.84,935.01,4287.5,-945.0,25515.0
98.82,342.09,935.25,5180.0,-1452.5,26110.0
101.75,342.82,934.64,4305.0,-717.5,25970.0
105.16,343.55,934.15,3885.0,-525.0,25900.0
108.82,344.16,933.91,4252.5,-927.5,26040.0
113.46,344.65,933.42,4760.0,-822.5,25900.0
118.95,345.26,932.45,4567.5,-525.0,25707.5
125.66,345.99,931.71,3360.0,437.5,24675.0
133.35,346.85,931.71,2327.5,2030.0,22767.5
140.79,347.94,932.45,3815.0,1977.5,20772.5
148.11,349.53,932.93,5985.0,437.5,19460.0
156.28,351.6,932.32,5477.5,1295.0,16835.0
164.46,354.04,931.59,4305.0,1890.0,13790.0
172.51,356.48,931.1,5057.5,1400.0,10587.5
180.32,359.05,930.13,5425.0,1155.0,7717.5
187.64,361.61,928.66,5687.5,1995.0,3552.5
194.35,364.29,927.08,4830.0,1557.5,752.5
200.32,366.49,925.61,3710.0,717.5,-2677.5
205.33,368.56,924.03,2520.0,840.0,-5337.5
209.6,370.51,922.69,1662.5,1540.0,-7822.5
213.01,372.1,921.22,980.0,1995.0,-10412.5
215.7,373.56,919.88,35.0,1750.0,-12740.0
217.77,375.03,918.78,-175.0,1417.5,-14945.0
219.23,376.37,917.44,-227.5,892.5,-16975.0
220.09,377.47,915.85,-1067.5,560.0,-18987.5
220.21,378.08,914.27,-2117.5,525.0,-20860.0
219.36,378.2,913.05,-2572.5,17.5,-21997.5
218.01,378.2,911.95,-3395.0,-87.5,-22715.0
216.55,378.2,911.22,-4340.0,280.0,-23362.5
215.33,378.2,910.85,-4865.0,367.5,-24272.5
214.11,378.2,910.61,-5215.0,-35.0,-25882.5
213.01,378.2,910.61,-5705.0,-1452.5,-27580.0
211.67,378.2,911.1,-5687.5,-1890.0,-29207.5
209.96,377.71,911.83,-5600.0,-1452.5,-30380.0
207.77,377.1,912.19,-6545.0,-1172.5,-31395.0
205.45,376.25,912.56,-7367.5,-1925.0,-32532.5
202.76,375.15,913.29,-7350.0,-2205.0,-33442.5
200.08,374.05,914.02,-7245.0,-1750.0,-34265.0
197.03,373.08,914.27,-7857.5,-1960.0,-35227.5
193.98,372.22,914.27,-8750.0,-2695.0,-36627.5
190.93,371.12,914.02,-9887.5,-3307.5,-38307.5
188.12,370.15,913.9,-10727.5,-6212.5,-41370.0
184.95,368.93,914.02,-11970.0,-7000.0,-43452.5
180.93,367.34,914.51,-12582.5,-6615.0,-43837.5
176.9,365.76,914.76,-13527.5,-6702.5,-44222.5
173.0,364.17,914.63,-14997.5,-5740.0,-45342.5
168.6,362.22,914.63,-16030.0,-7035.0,-46060.0
163.48,360.14,915.24,-16642.5,-7332.5,-46252.5
157.87,357.34,915.98,-16975.0,-7157.5,-45640.0
152.01,354.29,917.2,-18042.5,-5740.0,-44555.0
145.67,351.12,919.27,-17430.0,-4847.5,-43015.0
138.59,347.7,922.08,-14682.5,-4340.0,-40810.0
130.78,344.16,924.52,-11847.5,-3902.5,-37730.0
122.98,340.62,926.47,-10937.5,-3080.0,-34265.0
115.9,337.09,928.18,-12005.0,-2730.0,-31675.0
108.95,333.55,930.37,-12250.0,-3150.0,-30310.0
101.99,329.64,933.67,-11182.5,-3745.0,-29032.5
94.55,325.25,937.57,-9170.0,-3692.5,-26442.5
86.62,320.74,941.84,-7262.5,-2607.5,-23292.5
78.08,315.98,945.99,-3972.5,-2240.0,-19897.5
69.42,311.34,949.4,-1995.0,-2170.0,-15802.5
60.51,306.59,952.21,-1085.0,-1977.5,-12145.0
51.36,301.95,955.02,-525.0,-1785.0,-8172.5
42.46,297.68,958.07,1155.0,-1627.5,-3447.5
33.67,294.02,960.63,3307.5,-1505.0,1400.0
25.86,290.85,962.58,5057.5,-1295.0,6107.5
18.79,288.16,963.68,5652.5,-385.0,10692.5
12.57,285.72,964.41,5180.0,1540.0,15225.0
7.56,283.89,965.26,5582.5,2082.5,19127.5
3.54,282.55,966.0,7315.0,1452.5,22295.0
0.37,281.58,966.24,8575.0,717.5,25305.0
-1.95,280.72,965.75,8592.5,1260.0,28262.5
-3.9,279.87,965.26,8277.5,1662.5,30712.5
-5.98,279.01,964.41,8592.5,490.0,33355.0
-7.2,278.04,963.8,8610.0,-140.0,37082.5
-7.08,277.06,963.8,7595.0,2170.0,40057.5
-6.1,276.33,964.04,7595.0,2975.0,41790.0
-4.88,275.84,964.41,9345.0,210.0,43120.0
-3.29,275.6,964.53,11392.5,-2012.5,44975.0
-0.98,275.72,963.8,11585.0,-962.5,47320.0
2.2,276.21,962.82,11357.5,752.5,49980.0
6.34,276.94,961.36,11497.5,1452.5,52062.5
11.71,277.79,959.65,11917.5,1242.5,53112.5
18.3,279.01,958.55,10745.0,1522.5,54162.5
26.11,280.6,957.94,10867.5,2117.5,53480.0
34.04,282.43,957.7,12530.0,1032.5,52500.0
42.46,284.5,956.97,13615.0,-490.0,52325.0
51.36,286.94,955.87,13930.0,-245.0,51817.5
61.12,289.75,954.16,13632.5,1400.0,50872.5
71.49,292.92,951.84,12145.0,3062.5,49560.0
82.23,296.46,949.65,11305.0,2240.0,47582.5
93.21,300.36,947.57,10867.5,1347.5,44922.5
104.68,304.51,945.74,11305.0,752.5,42332.5
116.63,309.15,943.79,11917.5,1015.0,39742.5
129.08,314.15,941.72,11462.5,1330.0,36347.5
142.01,319.4,939.16,10132.5,2205.0,31797.5
154.94,325.01,936.35,8680.0,1610.0,26582.5
167.38,330.62,933.54,7455.0,1207.5,21035.0
179.1,335.99,930.74,6510.0,122.5,15645.0
189.71,341.11,928.05,5040.0,-52.5,10745.0
199.23,345.75,925.74,4112.5,157.5,6475.0
207.64,349.9,923.66,3570.0,140.0,2730.0
215.21,353.8,921.59,2835.0,175.0,-1330.0
221.67,357.22,919.64,1837.5,0.0,-5565.0
226.55,359.9,917.81,560.0,-122.5,-9275.0
230.09,362.1,916.34,-472.5,-35.0,-12250.0
232.29,363.68,915.37,-1610.0,280.0,-14455.0
233.14,364.54,915.0,-2397.5,560.0,-16205.0
233.14,364.78,915.61,-2345.0,752.5,-17447.5
232.17,364.78,916.46,-1995.0,1102.5,-18480.0
230.46,364.78,917.32,-1435.0,1330.0,-19250.0
228.14,364.66,917.93,-1137.5,1557.5,-19740.0
225.46,364.78,918.05,-1242.5,1820.0,-20037.5
222.77,364.9,917.68,-1697.5,2065.0,-20562.5
220.09,365.02,916.95,-2205.0,1662.5,-21227.5
217.16,365.02,916.34,-2870.0,1295.0,-22102.5
213.74,364.78,915.98,-3377.5,945.0,-22505.0
210.33,364.29,915.98,-3605.0,595.0,-22295.0
207.03,363.93,916.46,-3990.0,1137.5,-22312.5
203.98,363.56,916.95,-3745.0,1102.5,-22417.5
201.42,363.56,917.44,-3990.0,647.5,-22680.0
198.86,363.56,917.68,-3902.5,927.5,-23905.0
196.05,363.44,918.17,-4182.5,682.5,-24657.5
192.76,363.19,918.54,-3745.0,-52.5,-25112.5
189.47,362.83,918.78,-4130.0,0.0,-25007.5
186.17,362.22,919.39,-4620.0,840.0,-24955.0
183.0,361.73,920.12,-4515.0,980.0,-25147.5
179.95,361.36,920.86,-3972.5,192.5,-25777.5
177.02,361.12,921.47,-3797.5,-192.5,-26250.0
174.09,360.75,921.83,-3797.5,52.5,-26635.0
171.29,360.39,922.08,-4182.5,175.0,-26967.5
168.36,360.02,922.32,-4672.5,245.0,-27387.5
165.19,359.66,922.81,-4445.0,-105.0,-27895.0
162.14,359.41,923.05,-4340.0,-507.5,-28105.0
158.97,359.17,923.05,-4637.5,-507.5,-28385.0
155.67,358.68,923.17,-5145.0,-787.5,-28577.5
152.38,358.19,923.42,-5232.5,-1067.5,-28840.0
149.08,357.58,923.78,-5267.5,-1085.0,-29085.0
145.67,356.97,924.27,-5652.5,-1207.5,-29575.0
142.13,356.24,925.0,-6125.0,-1172.5,-30100.0
138.59,355.39,926.22,-5880.0,-1102.5,-30537.5
134.93,354.29,927.44,-6002.5,-927.5,-31132.5
130.78,352.82,928.79,-5512.5,-1050.0,-30695.0
126.88,351.36,930.13,-5512.5,-315.0,-30310.0
122.73,349.9,930.98,-5635.0,-140.0,-29942.5
118.34,348.8,931.59,-5180.0,-840.0,-30100.0
113.95,347.82,932.32,-5250.0,-1400.0,-30152.5
109.43,346.72,933.18,-5740.0,-1312.5,-30450.0
104.43,345.38,934.28,-5477.5,-1242.5,-29890.0
98.82,343.8,935.37,-4357.5,-1382.5,-28245.0
93.33,342.21,936.11,-4217.5,-402.5,-26477.5
87.96,340.87,936.47,-4637.5,472.5,-25322.5
82.59,339.4,936.96,-4497.5,105.0,-24605.0
76.86,337.94,937.69,-4007.5,-542.5,-23730.0
71.0,335.99,938.42,-3955.0,-857.5,-22365.0
64.9,334.04,939.28,-4182.5,-787.5,-20580.0
58.93,332.33,940.38,-4130.0,-420.0,-18847.5
53.07,330.86,941.35,-3692.5,-612.5,-17535.0
47.09,329.16,942.33,-3675.0,-1102.5,-16100.0
41.36,327.2,943.55,-3867.5,-980.0,-14350.0
35.26,325.01,945.38,-3727.5,-262.5,-12285.0
28.43,322.45,947.33,-1977.5,-577.5,-9817.5
21.11,319.88,948.92,-367.5,-1697.5,-6492.5
14.15,317.44,949.89,-437.5,-1242.5,-2485.0
7.81,315.13,951.36,-752.5,455.0,1417.5
2.44,313.05,953.31,-105.0,1435.0,4725.0
-2.2,311.34,955.26,1890.0,875.0,7420.0
-6.34,310.12,956.97,4147.5,280.0,10132.5
-9.39,309.39,957.46,4952.5,1067.5,12757.5
-11.71,309.03,957.21,4357.5,2187.5,14770.0
-13.66,308.66,956.48,3990.0,1977.5,16135.0
-15.86,308.29,955.87,4305.0,682.5,17465.0
-17.81,307.81,955.38,4725.0,-87.5,19722.5
-19.03,307.44,954.65,4270.0,857.5,22365.0
-19.28,307.44,954.04,3395.0,2117.5,24185.0
-18.54,307.68,953.67,3185.0,1872.5,25095.0
-17.32,308.17,953.92,3937.5,630.0,25427.5
-15.86,308.66,954.28,4795.0,-402.5,26022.5
-13.91,309.27,954.65,5110.0,-105.0,27212.5
-11.71,309.88,955.26,5145.0,770.0,28332.5
-9.27,310.61,955.75,6002.5,647.5,29365.0
-6.1,311.59,955.99,7017.5,385.0,29540.0
-2.68,312.81,955.5,7420.0,52.5,29487.5
0.61,314.03,954.65,7612.5,87.5,29487.5
3.78,315.49,953.31,7630.0,297.5,29942.5
6.95,316.96,951.36,6895.0,507.5,30152.5
10.13,318.42,949.28,6055.0,-315.0,30152.5
13.18,319.64,947.57,5250.0,-752.5,30257.5
16.1,320.62,946.35,5267.5,-997.5,30695.0
18.91,321.59,945.26,5442.5,-1242.5,31447.5
21.84,322.81,943.91,5005.0,-1085.0,31832.5
24.64,324.03,942.33,4970.0,-1960.0,31937.5
27.45,325.37,940.74,5057.5,-3360.0,32305.0
30.62,326.47,939.03,4182.5,-3377.5,33005.0
34.53,327.45,937.69,2380.0,-2257.5,33757.5
39.28,328.3,937.2,1032.5,-1365.0,33950.0
44.41,329.28,937.69,1732.5,-2100.0,33407.5
49.65,330.13,938.3,3885.0,-4077.5,32655.0
55.27,331.23,938.67,4637.5,-4585.0,32322.5
61.49,332.33,938.67,3622.5,-2537.5,32130.0
68.44,333.43,938.91,3482.5,-1312.5,31517.5
75.88,335.01,938.91,4725.0,-2012.5,30240.0
83.69,336.72,938.55,6370.0,-2922.5,27650.0
91.62,338.67,938.18,5057.5,-3010.0,25515.0
99.06,340.99,937.69,4655.0,-2905.0,23572.5
105.77,342.94,936.96,5057.5,-2782.5,22207.5
112.24,344.89,935.62,4462.5,-2205.0,20842.5
118.58,346.72,934.03,3710.0,-1995.0,19057.5
124.93,348.43,932.32,3185.0,-2520.0,17290.0
131.52,350.14,930.37,2187.5,-2607.5,15540.0
138.59,352.09,928.91,612.5,-1767.5,13825.0
146.16,354.04,928.18,-630.0,-472.5,11742.5
154.21,356.24,928.42,-385.0,-280.0,9135.0
162.26,358.68,929.03,857.5,-472.5,6230.0
170.56,361.36,928.91,1400.0,-245.0,2835.0
178.73,363.93,928.18,490.0,385.0,-1137.5
186.42,366.24,927.2,-175.0,437.5,-5530.0
193.13,368.2,926.1,-385.0,-227.5,-9432.5
198.74,369.9,924.88,-910.0,-472.5,-13072.5
203.01,371.12,923.54,-1942.5,-280.0,-16275.0
206.06,372.1,922.32,-2975.0,-262.5,-19022.5
207.89,372.34,921.47,-3885.0,-455.0,-21280.0
208.74,372.22,921.22,-4532.5,-297.5,-23135.0
208.5,371.61,921.83,-4637.5,140.0,-24657.5
207.4,370.88,922.69,-4130.0,0.0,-25742.5
205.69,369.9,923.54,-3867.5,-35.0,-26547.5
203.5,368.93,924.15,-3972.5,385.0,-27177.5
201.06,367.95,924.76,-3955.0,752.5,-27772.5
198.37,367.1,925.0,-3937.5,752.5,-28402.5
195.44,366.12,925.13,-3955.0,665.0,-28910.0
192.52,365.15,925.0,-4200.0,507.5,-29452.5
189.47,364.17,924.76,-4900.0,595.0,-30012.5
186.17,363.07,924.76,-5197.5,560.0,-30870.0
182.63,361.73,924.76,-5320.0,140.0,-31167.5
178.85,360.14,925.25,-5600.0,437.5,-31115.0
174.7,358.68,925.98,-6020.0,2362.5,-30327.5
170.43,357.22,926.83,-7122.5,5495.0,-29207.5
166.65,356.12,927.69,-6230.0,3010.0,-29662.5
162.99,354.9,928.42,-4970.0,35.0,-31290.0
158.97,353.8,929.4,-4917.5,-367.5,-32077.5
154.33,352.58,930.49,-4637.5,-682.5,-31920.0
149.45,351.12,931.59,-4427.5,-105.0,-31430.0
144.69,349.77,932.57,-4375.0,332.5,-30905.0
140.06,348.31,933.06,-4567.5,-52.5,-31395.0
135.18,346.72,933.54,-4935.0,-770.0,-31342.5
130.05,345.02,934.03,-5127.5,-647.5,-30940.0
124.93,343.43,935.01,-5722.5,-175.0,-30187.5
119.56,341.84,936.11,-5180.0,17.5,-29382.5
114.07,340.38,937.2,-4637.5,175.0,-28910.0
108.21,338.92,938.3,-3920.0,-717.5,-28560.0
102.24,337.21,938.91,-3710.0,-1522.5,-27842.5
96.01,335.38,939.52,-3885.0,-1417.5,-26670.0
89.3,333.67,940.13,-3797.5,-1715.0,-24920.0
82.59,332.08,940.86,-3272.5,-1715.0,-22977.5
76.01,330.5,941.47,-3482.5,-1347.5,-21245.0
69.3,328.79,942.08,-3377.5,-1557.5,-19460.0
62.34,326.84,942.94,-3447.5,-1662.5,-17937.5
54.9,324.52,943.91,-3185.0,-2240.0,-15855.0
47.09,322.08,945.01,-2642.5,-2467.5,-13072.5
39.04,319.64,946.23,-1732.5,-2310.0,-9607.5
30.99,317.32,947.45,-1102.5,-1872.5,-5582.5
23.42,315.0,948.55,-805.0,-1137.5,-1697.5
16.59,312.81,949.89,-630.0,-577.5,1995.0
10.25,310.86,951.36,490.0,-647.5,5460.0
4.88,309.03,952.94,1750.0,-682.5,8960.0
0.24,307.44,954.04,2572.5,-35.0,12162.5
-3.42,306.22,954.53,2975.0,262.5,14980.0
-6.1,305.24,954.65,2975.0,70.0,17220.0
-8.3,304.39,954.65,3220.0,-157.5,19512.5
-9.76,303.54,954.77,3622.5,-332.5,21997.5
-10.49,303.05,955.02,3710.0,105.0,24290.0
-10.37,302.8,955.26,3412.5,840.0,25987.5
-9.52,302.8,955.87,3867.5,612.5,27335.0
-8.17,302.8,956.48,4935.0,-52.5,28665.0
-5.86,303.05,956.85,5512.5,87.5,29820.0
-3.17,303.29,956.97,5670.0,402.5,30345.0
-0.12,303.9,956.97,6265.0,-192.5,30922.5
2.93,304.88,956.85,7227.5,-507.5,31482.5
5.86,306.46,955.87,7997.5,-892.5,31815.0
9.15,308.17,953.8,7612.5,-1592.5,32200.0
12.69,310.12,951.23,6247.5,-1225.0,32532.5
16.84,311.83,948.79,4795.0,-665.0,32515.0
21.11,313.3,946.84,3797.5,-1277.5,32427.5
25.62,314.27,945.5,3465.0,-2345.0,32252.5
30.5,315.0,944.89,3447.5,-2642.5,32357.5
35.75,315.86,944.89,3815.0,-2380.0,32462.5
41.24,317.08,945.01,3832.5,-1942.5,32147.5
46.97,318.42,945.5,3990.0,-1680.0,31640.0
52.83,319.76,945.99,5232.5,-1890.0,30870.0
58.8,321.1,945.99,6475.0,-2502.5,29645.0
64.9,322.32,945.62,5950.0,-2625.0,28980.0
70.76,323.42,945.74,5215.0,-1417.5,28000.0
76.25,324.64,946.35,5845.0,-997.5,27457.5
81.37,326.11,946.72,7437.5,-1295.0,26915.0
86.38,327.69,945.74,7665.0,-1627.5,26267.5
91.5,329.28,944.04,6352.5,-1732.5,25567.5
96.87,330.5,942.57,5372.5,-612.5,24552.5
101.5,331.6,941.35,5372.5,-577.5,23975.0
106.38,332.94,939.89,5197.5,-1015.0,23677.5
111.39,334.4,938.67,3902.5,17.5,23030.0
117.0,336.23,938.42,3587.5,857.5,22837.5
123.46,338.18,938.79,4637.5,2082.5,21262.5
129.81,340.62,938.55,6072.5,1207.5,18182.5
136.03,342.82,937.57,6195.0,-1190.0,15767.5
142.01,344.77,936.47,5827.5,-560.0,14017.5
147.86,346.48,935.25,4462.5,1225.0,12880.0
154.09,348.19,934.03,3797.5,1680.0,11235.0
160.31,350.51,933.06,3587.5,1330.0,8732.5
166.29,352.95,932.08,3500.0,752.5,5810.0
171.9,355.51,931.1,3570.0,542.5,3150.0
177.27,357.95,929.64,2922.5,910.0,402.5
182.02,360.27,928.18,1820.0,1365.0,-2257.5
186.42,362.34,926.83,1225.0,1172.5,-4777.5
190.08,364.17,925.74,892.5,910.0,-6965.0
193.49,366.0,924.76,262.5,1330.0,-9222.5
196.42,367.46,923.78,-245.0,1225.0,-11690.0
198.74,368.93,923.05,-350.0,875.0,-14035.0
200.32,370.15,922.32,-420.0,840.0,-16082.5
201.42,371.37,921.34,-840.0,717.5,-17885.0
202.15,372.34,920.25,-1732.5,682.5,-19757.5
202.4,372.83,919.15,-2887.5,717.5,-21560.0
202.15,372.83,918.54,-3832.5,507.5,-22942.5
201.3,372.47,918.29,-3815.0,507.5,-24465.0
199.59,371.86,918.29,-3815.0,350.0,-25427.5
197.4,371.37,918.42,-3517.5,-105.0,-26250.0
195.08,370.64,918.54,-4042.5,-87.5,-26775.0
192.64,370.15,918.9,-4970.0,525.0,-27317.5
189.83,369.42,919.51,-4795.0,455.0,-28017.5
186.54,368.68,920.25,-4130.0,-472.5,-28630.0
183.12,367.83,920.73,-4060.0,-560.0,-29085.0
179.46,366.98,921.34,-4707.5,367.5,-29155.0
175.44,365.88,921.95,-4795.0,962.5,-29050.0
171.41,364.78,922.44,-4427.5,542.5,-28840.0
167.38,363.8,922.81,-4445.0,332.5,-28962.5
163.36,363.07,923.17,-4812.5,315.0,-29417.5
158.84,362.34,923.3,-4725.0,-525.0,-29750.0
153.96,361.36,923.3,-5110.0,-1137.5,-29522.5
149.45,360.39,923.66,-5757.5,-840.0,-29085.0
144.81,359.29,924.27,-5250.0,-525.0,-29032.5
140.18,357.95,924.76,-5162.5,-1225.0,-28717.5
135.91,356.85,925.0,-5285.0,-1540.0,-28437.5
131.64,355.63,925.37,-6055.0,-1102.5,-28052.5
127.25,354.29,925.98,-6370.0,-962.5,-27510.0
122.61,352.95,926.71,-6125.0,-1487.5,-27037.5
117.97,351.6,927.32,-5057.5,-2345.0,-26722.5
113.58,350.26,927.81,-5477.5,-2642.5,-25917.5
109.31,348.92,928.42,-6492.5,-1855.0,-25305.0
104.92,347.58,929.4,-6405.0,-2310.0,-24797.5
100.53,346.24,930.62,-5600.0,-3342.5,-23992.5
96.38,345.02,931.71,-5495.0,-2975.0,-23380.0
92.23,343.55,932.93,-5372.5,-2572.5,-22977.5
87.96,341.84,934.03,-5267.5,-2905.0,-22102.5
83.81,340.14,935.25,-5355.0,-2660.0,-21175.0
80.03,338.43,936.72,-4952.5,-2380.0,-20475.0
76.01,336.72,937.94,-4497.5,-3150.0,-20020.0
71.74,335.26,939.4,-3482.5,-3675.0,-18410.0
67.59,334.04,940.62,-3237.5,-2222.5,-17552.5
63.07,332.94,941.35,-3307.5,-2677.5,-16397.5
58.56,331.84,941.84,-3115.0,-3360.0,-15172.5
53.44,330.5,942.21,-3220.0,-3850.0,-13860.0
47.58,328.3,942.57,-3482.5,-4270.0,-11865.0
41.11,325.37,943.79,-3465.0,-4060.0,-9065.0
34.53,322.32,945.5,-2222.5,-3360.0,-6212.5
27.82,319.4,947.33,-787.5,-3535.0,-3220.0
21.23,316.71,948.79,-472.5,-3815.0,332.5
15.13,314.15,950.5,-1172.5,-2695.0,4077.5
10.25,311.83,953.19,-630.0,-1260.0,7962.5
6.59,309.51,956.24,1382.5,-980.0,10832.5
4.27,307.56,958.68,3080.0,-1382.5,12827.5
2.81,306.1,960.87,4707.5,-1575.0,14717.5
1.71,305.0,962.09,6247.5,-1260.0,16730.0
0.98,304.51,962.09,6475.0,-525.0,18742.5
0.73,304.39,961.12,5460.0,-52.5,20492.5
0.49,304.51,960.26,5057.5,-175.0,22312.5
0.49,304.76,959.65,5880.0,-892.5,24010.0
0.85,304.88,958.43,5687.5,-840.0,26197.5
2.07,305.0,957.46,4655.0,490.0,28140.0
3.66,305.24,956.72,5180.0,752.5,29557.5
5.73,305.73,955.63,6195.0,-315.0,30660.0
8.3,306.34,953.8,5985.0,-612.5,31325.0
11.47,307.2,952.09,4392.5,525.0,32252.5
14.64,308.29,951.36,4200.0,1452.5,32742.5
17.69,309.88,950.62,5617.5,105.0,33040.0
20.98,311.47,949.04,5827.5,-1277.5,33740.0
24.89,312.69,947.21,3780.0,-105.0,34335.0
29.65,313.78,946.23,2100.0,980.0,34125.0
34.53,314.88,946.11,2852.5,-455.0,33232.5
39.65,315.74,946.23,3885.0,-2012.5,32900.0
45.02,316.83,946.35,3797.5,-1137.5,32445.0
50.26,318.05,946.23,4375.0,-910.0,31815.0
55.63,318.91,945.62,4725.0,-1890.0,31447.5
61.24,319.64,945.01,4095.0,-1522.5,31080.0
66.86,320.49,944.52,3867.5,-962.5,30327.5
72.22,321.1,944.16,3570.0,-1400.0,29872.5
77.71,321.71,944.28,3307.5,-1137.5,29120.0
82.72,322.57,944.89,4357.5,-1400.0,28437.5
87.11,323.54,945.01,5652.5,-2275.0,28210.0
91.38,324.52,944.28,5390.0,-1785.0,28052.5
96.26,325.5,942.82,3465.0,-892.5,27772.5
101.63,326.23,941.6,822.5,1207.5,26635.0
106.99,326.96,941.35,-175.0,1680.0,25182.5
111.75,327.69,942.08,1960.0,0.0,24010.0
116.51,328.3,942.57,4305.0,-1995.0,22715.0
121.27,328.91,942.33,3955.0,-962.5,22557.5
126.15,329.4,942.33,4182.5,-1032.5,21980.0
131.39,330.13,942.45,4777.5,-1487.5,21157.5
136.88,331.11,942.57,5075.0,-892.5,19652.5
142.5,332.08,942.33,4882.5,-735.0,18217.5
147.99,333.06,942.33,4830.0,-455.0,16957.5
153.72,334.04,942.69,5530.0,227.5,15715.0
159.94,335.5,942.69,6352.5,612.5,14140.0
166.41,337.45,941.84,6370.0,682.5,12022.5
172.87,339.65,940.5,5827.5,1085.0,9380.0
179.22,342.21,938.42,5285.0,717.5,6650.0
185.68,344.89,936.23,3815.0,840.0,4095.0
192.27,347.46,934.15,2257.5,1785.0,945.0
198.25,350.14,932.69,1995.0,1732.5,-2397.5
203.5,352.58,931.1,2292.5,700.0,-5530.0
208.01,354.9,929.15,1400.0,437.5,-8400.0
211.91,356.97,927.2,-192.5,997.5,-11165.0
215.21,358.56,925.86,-1050.0,1312.5,-13457.5
217.89,360.02,924.64,-1347.5,1190.0,-15925.0
219.97,361.36,923.42,-1662.5,787.5,-18340.0
221.31,362.34,922.56,-1977.5,805.0,-20387.5
221.8,362.83,921.83,-2222.5,1295.0,-22102.5
221.8,363.32,920.86,-2607.5,1067.5,-23695.0
221.31,363.56,919.64,-3360.0,822.5,-25235.0
220.58,363.68,918.66,-4812.5,1102.5,-26845.0
219.36,363.56,918.17,-5845.0,1172.5,-28332.5
217.77,363.32,918.29,-5915.0,700.0,-29417.5
215.82,362.95,918.78,-5705.0,612.5,-30660.0
213.26,362.34,919.39,-5250.0,315.0,-31535.0
210.69,361.61,919.88,-5407.5,455.0,-32165.0
208.13,360.63,920.25,-6090.0,1225.0,-33145.0
205.08,359.53,920.61,-6317.5,945.0,-34247.5
201.67,358.19,920.86,-6492.5,17.5,-35262.5
197.88,356.85,921.47,-6807.5,105.0,-35700.0
193.61,355.39,922.2,-7087.5,840.0,-35752.5
189.22,353.92,923.05,-7280.0,1050.0,-35840.0
184.71,352.46,924.03,-7210.0,752.5,-36172.5
179.95,350.87,925.13,-7070.0,350.0,-36522.5
174.83,349.29,926.22,-6860.0,332.5,-36540.0
169.34,347.7,927.2,-6772.5,332.5,-36400.0
163.85,345.99,927.81,-7017.5,122.5,-36207.5
158.23,344.16,928.42,-8837.5,315.0,-35805.0
152.38,342.21,929.15,-7980.0,455.0,-35612.5
146.16,340.01,930.13,-7157.5,-332.5,-34790.0
140.18,338.18,930.98,-7157.5,-140.0,-34247.5
133.83,336.11,932.08,-7577.5,-35.0,-33985.0
127.12,333.79,933.42,-6790.0,-1032.5,-32427.5
120.54,331.6,935.01,-6685.0,-192.5,-31342.5
113.46,329.16,936.72,-6370.0,-210.0,-29680.0
106.38,326.72,938.42,-5967.5,-490.0,-28035.0
99.31,324.4,940.25,-4812.5,-385.0,-26897.5
91.99,321.84,942.08,-4340.0,-507.5,-25602.5
83.81,319.03,943.91,-3780.0,-770.0,-23362.5
74.91,315.98,945.87,-3307.5,-630.0,-20282.5
65.76,312.81,947.7,-2817.5,-507.5,-16747.5
56.85,309.76,949.65,-2135.0,-52.5,-13317.5
48.07,306.95,951.72,-875.0,105.0,-10010.0
39.77,304.27,953.55,157.5,-315.0,-6597.5
31.72,301.83,955.26,682.5,-262.5,-3255.0
23.79,299.63,956.72,1942.5,-455.0,490.0
16.47,297.92,957.7,3167.5,-175.0,4270.0
10.37,296.34,958.19,3255.0,367.5,8050.0
5.37,295.12,958.43,2520.0,822.5,11357.5
1.71,294.26,958.92,3412.5,822.5,13807.5
-0.98,293.78,959.16,4095.0,70.0,15855.0
-2.44,293.78,959.53,4637.5,-175.0,17657.5
-3.42,293.9,959.65,5145.0,-87.5,19320.0
-3.78,294.39,959.41,5442.5,-122.5,20825.0
-3.42,295.12,958.92,5547.5,-245.0,22032.5
-2.81,295.97,958.07,5547.5,-717.5,23082.5
-1.59,296.95,956.97,5232.5,-1120.0,24185.0
0.49,297.92,956.24,4235.0,-682.5,25007.5
3.05,298.9,956.24,4077.5,-52.5,25480.0
6.1,300.12,956.72,5390.0,-857.5,25742.5
9.52,301.46,956.85,6230.0,-1365.0,25742.5
13.18,302.8,956.48,6142.5,-997.5,25672.5
17.08,304.02,955.99,5775.0,-507.5,25882.5
20.98,305.49,955.75,5880.0,17.5,25847.5
24.89,307.07,954.89,6492.5,-612.5,25462.5
28.55,308.78,953.55,6247.5,-1557.5,25130.0
32.21,310.37,952.21,5670.0,-1330.0,25217.5
35.87,311.95,951.23,5320.0,-507.5,25637.5
39.77,313.66,950.38,5162.5,-420.0,25585.0
44.04,315.37,949.4,5250.0,-980.0,24850.0
47.82,317.08,948.43,5617.5,-1575.0,24272.5
51.61,318.91,947.33,5985.0,-1662.5,24675.0
55.51,320.86,945.74,5477.5,-945.0,23975.0
59.29,322.45,943.79,4410.0,-1960.0,23625.0
63.2,324.03,942.33,3745.0,-2187.5,23082.5
67.22,325.5,941.6,3517.5,-2012.5,22680.0
71.13,326.96,940.86,3395.0,-2065.0,22225.0
75.03,328.3,940.13,3097.5,-2012.5,21560.0
78.69,329.64,939.64,3150.0,-2292.5,20982.5
81.98,330.86,938.91,3342.5,-2730.0,20720.0
85.4,332.08,937.94,3080.0,-2747.5,20475.0
88.94,333.06,936.72,2362.5,-2520.0,19915.0
92.23,334.04,935.62,1417.5,-2730.0,19285.0
95.53,334.65,934.52,595.0,-3185.0,18777.5
98.7,335.26,934.03,-297.5,-2695.0,18672.5
101.75,335.74,934.28,262.5,-2240.0,18515.0
104.92,335.99,934.03,1225.0,-3325.0,18392.5
108.46,336.35,933.79,472.5,-3622.5,18130.0
112.48,336.72,934.03,-770.0,-2380.0,17727.5
116.88,336.96,935.37,-507.5,-1435.0,17097.5
121.15,337.33,936.84,1435.0,-1977.5,16275.0
126.03,337.94,937.69,2397.5,-2292.5,15505.0
131.39,338.79,938.18,1767.5,-945.0,14157.5
136.88,339.89,938.67,1820.0,-630.0,12512.5
142.25,340.87,938.79,2450.0,-1067.5,10920.0
147.86,341.97,938.79,2502.5,-507.5,9415.0
153.48,343.31,938.42,2345.0,245.0,7665.0
159.58,344.89,937.81,2170.0,367.5,5425.0
165.43,346.72,936.96,1890.0,175.0,2607.5
170.92,348.31,935.86,1470.0,-17.5,-70.0
175.68,349.9,934.76,1312.5,-245.0,-2450.0
179.95,351.36,933.54,875.0,-122.5,-4462.5
183.85,352.7,932.08,-87.5,297.5,-6632.5
187.27,353.8,930.62,-1347.5,245.0,-8995.0
189.83,354.78,929.88,-1890.0,35.0,-11165.0
191.3,355.26,929.52,-1452.5,-367.5,-12705.0
191.91,355.51,929.03,-1662.5,-297.5,-13790.0
192.03,355.51,928.42,-2677.5,17.5,-14752.5
191.78,355.26,928.3,-3185.0,315.0,-15557.5
191.05,354.78,928.66,-3115.0,490.0,-16240.0
190.32,354.17,929.03,-2817.5,420.0,-16975.0
189.34,353.8,929.4,-3097.5,542.5,-17605.0
188.37,353.31,929.88,-3220.0,1102.5,-18147.5
187.51,352.82,930.37,-2992.5,1452.5,-18970.0
186.66,352.58,930.49,-2887.5,1225.0,-19967.5
185.44,352.21,930.49,-3045.0,962.5,-21000.0
183.98,351.85,930.37,-3290.0,822.5,-21752.5
182.39,351.48,930.37,-3797.5,752.5,-22312.5
180.56,350.87,930.37,-4462.5,857.5,-23065.0
178.49,350.26,930.86,-4497.5,752.5,-23782.5
176.05,349.41,931.59,-4025.0,385.0,-24237.5
173.48,348.55,932.08,-3990.0,542.5,-24517.5
170.68,347.58,932.45,-4410.0,962.5,-24885.0
167.75,346.48,932.81,-4550.0,927.5,-25305.0
164.21,345.26,933.3,-4305.0,595.0,-25375.0
160.43,343.92,933.79,-3885.0,332.5,-25007.5
156.4,342.7,934.15,-4007.5,630.0,-24325.0
152.5,341.36,934.64,-4742.5,1207.5,-24027.5
148.6,340.26,935.37,-4917.5,1155.0,-24027.5
144.45,339.04,936.47,-4322.5,542.5,-23712.5
140.06,337.94,937.81,-3482.5,595.0,-23135.0
135.79,336.72,938.79,-2992.5,1015.0,-22452.5
131.27,335.5,939.4,-3150.0,1120.0,-21910.0
126.64,334.04,940.13,-3360.0,927.5,-21332.5
121.63,332.57,940.99,-3027.5,560.0,-20580.0
116.39,331.11,941.84,-2642.5,332.5,-19407.5
111.26,329.64,942.69,-2607.5,595.0,-18007.5
106.38,328.3,943.43,-2747.5,962.5,-16905.0
101.5,327.2,944.28,-2205.0,525.0,-15802.5
96.87,326.23,945.01,-1400.0,70.0,-14560.0
92.6,325.37,945.38,-1155.0,385.0,-13387.5
88.69,324.76,945.5,-1627.5,647.5,-12232.5
85.16,324.03,945.74,-1890.0,805.0,-11707.5
81.86,323.67,945.99,-1435.0,105.0,-10920.0
78.57,323.3,945.99,-1015.0,-560.0,-10167.5
75.27,322.81,945.99,-1365.0,-525.0,-9257.5
71.86,322.2,945.99,-1697.5,-122.5,-7997.5
68.32,321.47,946.48,-1295.0,-262.5,-6737.5
64.66,320.62,947.21,-560.0,-1102.5,-5547.5
60.51,319.4,947.94,385.0,-2100.0,-4235.0
56.12,317.93,949.16,1785.0,-2660.0,-2012.5
51.85,316.59,950.5,2782.5,-2502.5,332.5
48.07,315.37,951.6,2082.5,-1155.0,2135.0
44.53,314.27,952.7,1977.5,-735.0,4130.0
41.36,313.3,953.55,2292.5,-1295.0,5967.5
38.8,312.81,954.16,2415.0,-787.5,7525.0
36.6,312.69,954.65,3220.0,-962.5,9100.0
34.89,312.44,954.77,5197.5,-2345.0,10622.5
34.04,312.44,954.28,4725.0,-2222.5,12285.0
33.92,312.69,953.8,3097.5,-367.5,12985.0
34.4,313.05,953.67,2800.0,-402.5,13632.5
34.89,313.54,953.8,3307.5,-1085.0,14385.0
35.87,314.03,953.8,3640.0,-647.5,14997.5
37.09,314.76,953.8,3832.5,-490.0,15627.5
38.31,315.49,953.55,4112.5,-1032.5,15995.0
39.77,316.1,953.06,4567.5,-1505.0,16450.0
41.48,316.83,952.45,4515.0,-1837.5,16887.5
43.55,317.57,951.72,3535.0,-1137.5,17115.0
45.63,318.42,951.48,3482.5,-735.0,17290.0
47.82,319.4,951.36,4497.5,-1225.0,17692.5
50.02,320.37,950.87,4847.5,-1365.0,17867.5
52.58,321.47,950.14,4742.5,-1522.5,18147.5
55.51,322.57,949.28,4042.5,-1085.0,17937.5
58.8,323.54,948.67,3342.5,-577.5,17447.5
61.98,324.76,948.31,3762.5,-962.5,17080.0
64.9,325.98,947.94,4340.0,-1435.0,16800.0
67.95,327.33,947.45,4340.0,-1680.0,16677.5
71.13,328.42,946.96,3972.5,-1627.5,16642.5
74.54,329.64,946.72,3797.5,-1417.5,16222.5
77.96,330.86,946.72,4007.5,-1260.0,15680.0
81.5,331.84,946.84,4672.5,-1365.0,15085.0
84.91,332.94,946.96,5390.0,-1365.0,14647.5
88.33,334.04,946.35,5915.0,-1627.5,14052.5
91.5,335.26,945.01,5285.0,-1295.0,13195.0
94.55,336.48,943.55,4007.5,-1015.0,12617.5
97.36,337.7,942.33,3447.5,-717.5,12162.5
99.92,338.92,941.47,3780.0,-1172.5,11847.5
102.36,340.14,940.38,3587.5,-1610.0,11322.5
104.68,341.36,939.03,2835.0,-1540.0,10850.0
107.12,342.33,938.18,2240.0,-962.5,10535.0
109.31,343.31,937.69,2415.0,-770.0,10097.5
111.26,344.16,936.84,2380.0,-1365.0,9677.5
113.22,345.14,936.11,1592.5,-1155.0,9257.5
114.92,345.75,935.5,787.5,-630.0,8907.5
116.63,346.24,935.5,1085.0,-577.5,8960.0
118.34,346.72,935.62,2135.0,-1172.5,8890.0
120.41,347.21,935.5,2310.0,-1435.0,8592.5
122.85,347.94,935.25,1610.0,-945.0,8102.5
125.66,348.68,935.37,1645.0,-280.0,7455.0
128.83,349.65,935.25,1820.0,-175.0,6527.5
132.49,350.87,935.01,1557.5,105.0,5390.0
136.64,352.34,934.64,1610.0,210.0,3990.0
140.79,353.8,934.28,1627.5,52.5,2275.0
145.18,355.51,933.42,1400.0,-70.0,122.5
149.33,356.97,932.57,1190.0,-507.5,-1855.0
153.23,358.56,931.59,857.5,-542.5,-3727.5
156.89,360.14,930.37,437.5,-367.5,-5722.5
160.06,361.61,928.79,-262.5,-665.0,-7770.0
162.5,362.83,927.44,-962.5,-1260.0,-9730.0
164.46,363.93,926.1,-1802.5,-1522.5,-11445.0
165.68,364.54,925.13,-2870.0,-1050.0,-12827.5
166.41,364.9,924.52,-3622.5,-682.5,-13737.5
166.65,365.02,924.64,-3920.0,-367.5,-14682.5
166.53,364.9,925.0,-3832.5,-245.0,-15680.0
165.92,364.54,925.49,-3657.5,-735.0,-16450.0
164.82,364.05,925.74,-3482.5,-962.5,-17010.0
163.48,363.44,926.22,-3552.5,-700.0,-17255.0
161.77,362.71,926.47,-3885.0,-350.0,-17535.0
159.94,361.97,926.83,-4217.5,-70.0,-17797.5
157.87,361.12,927.08,-3955.0,-560.0,-18007.5
155.55,360.39,927.44,-3832.5,-857.5,-18042.5
153.11,359.53,927.69,-3972.5,-490.0,-17937.5
150.55,358.68,927.81,-4270.0,-577.5,-17920.0
148.11,357.58,927.93,-4830.0,-735.0,-17955.0
145.42,356.61,928.42,-4935.0,-682.5,-18042.5
142.62,355.63,929.03,-4585.0,-1015.0,-17797.5
139.81,354.53,929.4,-4742.5,-1120.0,-17430.0
137.01,353.43,929.88,-4882.5,-875.0,-17202.5
134.08,352.34,930.37,-4672.5,-1120.0,-16800.0
131.03,351.12,931.1,-4532.5,-1540.0,-16485.0
128.34,349.9,931.84,-4637.5,-1540.0,-16100.0
125.66,348.68,932.45,-5180.0,-1172.5,-15715.0
122.85,347.46,933.67,-5355.0,-840.0,-15295.0
120.05,346.24,935.13,-4497.5,-1225.0,-14875.0
117.36,345.02,936.59,-3657.5,-1697.5,-14402.5
114.8,343.8,937.81,-3185.0,-1435.0,-13930.0
112.36,342.45,938.55,-2747.5,-1365.0,-13422.5
109.92,341.11,938.79,-3080.0,-1487.5,-13072.5
107.6,339.77,939.16,-3885.0,-1645.0,-12810.0
104.92,338.43,939.89,-4042.5,-1487.5,-12215.0
102.24,337.21,941.11,-3132.5,-1365.0,-11200.0
99.55,336.23,941.96,-2380.0,-1347.5,-10272.5
97.11,335.26,942.57,-2432.5,-1347.5,-9712.5
94.43,334.28,943.06,-2852.5,-1067.5,-9152.5
91.38,332.82,944.16,-2502.5,-1032.5,-8330.0
87.84,331.47,945.38,-1505.0,-1277.5,-7000.0
83.94,329.89,946.23,-910.0,-1435.0,-5512.5
79.79,328.06,947.09,-1085.0,-1207.5,-3710.0
75.52,326.11,948.18,-997.5,-647.5,-1680.0
71.37,324.28,949.65,70.0,-542.5,525.0
67.34,322.45,951.11,1120.0,-892.5,2765.0
63.81,320.86,952.09,1435.0,-560.0,4812.5
60.63,319.4,953.06,2100.0,-647.5,6667.5
57.83,318.05,954.04,2765.0,-840.0,8680.0
55.39,316.96,954.65,2940.0,-297.5,10290.0
53.31,315.86,955.26,3395.0,-385.0,12215.0
51.97,314.88,955.87,3692.5,-87.5,14122.5
51.36,314.27,956.6,4235.0,525.0,15557.5
51.24,313.91,956.97,5075.0,-105.0,16712.5
51.73,313.78,957.33,5512.5,-455.0,17692.5
52.7,313.91,957.7,5687.5,315.0,18620.0
54.05,314.15,957.94,6072.5,735.0,19407.5
55.63,314.52,957.94,6615.0,525.0,19810.0
57.34,315.0,957.7,7280.0,17.5,20212.5
59.05,315.74,957.21,7332.5,227.5,20930.0
61.24,316.47,956.72,6895.0,1207.5,21717.5
63.68,317.2,956.24,6912.5,1872.5,22032.5
66.25,318.18,955.75,7980.0,770.0,22085.0
68.81,319.4,954.89,8540.0,0.0,22050.0
71.49,320.62,953.8,8225.0,385.0,22242.5
74.18,321.84,952.82,8120.0,612.5,22540.0
76.86,323.3,951.72,8120.0,980.0,22487.5
79.67,324.52,950.38,8015.0,560.0,22435.0
82.59,325.98,948.92,7402.5,507.5,22452.5
85.64,327.2,947.82,7000.0,980.0,22505.0
88.94,328.67,947.09,7367.5,910.0,22435.0
92.23,330.25,946.23,8067.5,52.5,22172.5
95.77,331.96,945.01,8172.5,-105.0,21770.0
99.31,333.79,943.79,7875.0,210.0,21420.0
102.97,335.62,942.57,8050.0,332.5,21087.5
106.87,337.57,940.86,7595.0,192.5,20405.0
110.78,339.65,939.16,6912.5,-682.5,19390.0
114.68,341.6,937.94,6387.5,-910.0,18287.5
118.34,343.55,936.96,6160.0,-280.0,17780.0
122.24,345.5,935.98,6002.5,560.0,17447.5
126.76,347.58,934.64,5775.0,822.5,16450.0
131.76,349.77,933.06,5197.5,787.5,14910.0
137.25,352.34,931.35,4900.0,385.0,13107.5
142.74,354.9,929.64,4620.0,87.5,11235.0
148.35,357.7,927.81,4060.0,297.5,9292.5
154.09,360.75,925.98,3465.0,227.5,7210.0
159.82,363.8,923.78,2747.5,-157.5,4777.5
165.8,366.98,921.59,1575.0,-420.0,1890.0
171.53,369.78,919.51,315.0,-402.5,-1102.5
176.78,372.47,917.68,-735.0,-297.5,-4060.0
181.29,374.78,916.1,-1137.5,-717.5,-6702.5
184.95,376.86,914.63,-1470.0,-1522.5,-9100.0
188.25,378.69,913.05,-2642.5,-1732.5,-11462.5
190.69,379.91,911.95,-4095.0,-1120.0,-13440.0
192.64,381.01,911.34,-4970.0,-717.5,-15225.0
193.98,381.74,910.85,-5600.0,-630.0,-17220.0
194.59,381.98,910.73,-6492.5,-332.5,-19162.5
193.98,381.37,911.22,-6597.5,-1172.5,-20230.0
192.52,380.52,912.32,-5460.0,-2152.5,-20772.5
190.56,379.42,913.54,-5530.0,-1452.5,-20860.0
188.12,378.08,914.76,-6142.5,-385.0,-20912.5
185.56,376.74,916.1,-5810.0,-437.5,-21052.5
182.76,375.39,917.44,-5705.0,-350.0,-21227.5
180.07,373.93,918.54,-5775.0,17.5,-21472.5
177.02,372.59,919.88,-5320.0,-157.5,-21385.0
173.73,371.12,921.22,-4585.0,-350.0,-21017.5
170.56,369.9,922.08,-4602.5,157.5,-20650.0
167.51,368.56,922.81,-4882.5,595.0,-20510.0
164.46,367.34,923.3,-5040.0,350.0,-20475.0
161.41,366.24,924.03,-5075.0,245.0,-20580.0
158.36,365.02,925.0,-4882.5,140.0,-20562.5
155.06,364.05,925.74,-4532.5,105.0,-20317.5
151.77,362.95,926.59,-4480.0,227.5,-19897.5
148.35,361.85,927.2,-4252.5,367.5,-19547.5
145.42,361.0,927.69,-4445.0,542.5,-19425.0
142.25,360.02,927.93,-4462.5,-140.0,-19460.0
138.96,359.05,928.42,-4182.5,-910.0,-19197.5
135.79,358.07,928.79,-4200.0,-647.5,-18812.5
132.74,357.09,929.27,-4515.0,-87.5,-18445.0
129.81,356.24,929.76,-4497.5,-140.0,-18287.5
126.88,355.26,930.37,-4462.5,-455.0,-18130.0
123.95,354.17,931.1,-4672.5,-507.5,-17815.0
121.02,353.07,932.08,-4672.5,-420.0,-17675.0
118.1,352.09,933.06,-4287.5,-595.0,-17430.0
115.17,350.87,934.03,-4112.5,-507.5,-16852.5
112.24,349.65,935.25,-3920.0,-105.0,-16327.5
109.43,348.43,936.59,-3307.5,-122.5,-15942.5
106.63,347.33,937.94,-2292.5,-507.5,-15610.0
103.46,346.36,938.91,-1715.0,-805.0,-15067.5
100.16,345.38,939.4,-2187.5,-542.5,-14367.5
96.75,344.28,940.01,-2555.0,-385.0,-13772.5
93.09,343.06,940.99,-2292.5,-455.0,-13037.5
88.94,341.72,942.08,-1312.5,-927.5,-12040.0
84.3,340.01,943.18,-525.0,-997.5,-10570.0
79.3,338.06,944.04,-577.5,-402.5,-8837.5
73.57,335.99,944.89,-472.5,-192.5,-6702.5
67.71,333.79,945.99,-175.0,-210.0,-4305.0
61.61,331.6,947.09,210.0,-87.5,-1610.0
55.75,329.64,948.31,1207.5,35.0,1417.5
50.39,327.94,949.53,2030.0,262.5,4217.5
45.63,326.47,950.26,2625.0,210.0,6842.5
