acc_x,acc_y,acc_z,gyro_x,gyro_y,gyro_z
-188.73,197.4,968.19,-840.0,-3762.5,-6002.5
-187.64,197.4,968.92,-595.0,-4252.5,-7350.0
-186.9,197.15,969.9,-70.0,-4462.5,-7875.0
-186.54,196.66,970.88,1347.5,-4952.5,-8102.5
-186.17,196.05,971.12,1225.0,-4532.5,-8522.5
-185.81,195.44,971.0,-105.0,-4340.0,-9082.5
-185.56,194.71,971.0,840.0,-5232.5,-9082.5
-184.83,194.47,970.51,2730.0,-5827.5,-8942.5
-183.73,195.08,968.92,2432.5,-5827.5,-9415.0
-182.76,196.18,966.48,910.0,-6720.0,-10535.0
-182.51,197.15,964.53,-910.0,-7175.0,-10937.5
-182.51,197.64,963.92,-2817.5,-6352.5,-10657.5
-182.51,197.4,965.02,-3937.5,-5442.5,-10202.5
-182.02,196.54,967.95,-3185.0,-4585.0,-10080.0
-181.78,195.44,971.73,-997.5,-3920.0,-10622.5
-181.54,194.47,975.27,892.5,-3185.0,-11305.0
-180.93,193.61,977.83,875.0,-2012.5,-12145.0
-180.56,192.76,979.42,1120.0,-1295.0,-12792.5
-180.8,191.78,980.15,2117.5,-1855.0,-13317.5
-181.41,190.81,979.9,2730.0,-2100.0,-12967.5
-182.02,189.83,979.17,1155.0,-1277.5,-12127.5
-182.27,188.86,978.44,-140.0,-455.0,-11357.5
-182.27,187.64,978.44,-122.5,350.0,-10902.5
-182.63,186.29,978.56,-262.5,1347.5,-10675.0
-183.49,184.71,978.56,350.0,735.0,-10412.5
-184.95,183.0,978.2,1085.0,-385.0,-10150.0
-186.78,180.8,977.71,1050.0,-525.0,-9240.0
-188.98,178.24,977.1,455.0,-35.0,-7577.5
-191.54,176.05,976.49,192.5,262.5,-6282.5
-194.22,173.73,975.76,315.0,-647.5,-5040.0
-196.79,171.41,975.02,350.0,-1732.5,-3377.5
-199.1,169.09,974.54,735.0,-2240.0,-1785.0
-201.18,166.9,974.29,1155.0,-3220.0,52.5
-203.01,165.31,974.29,1032.5,-3062.5,1417.5
-204.84,163.97,974.41,490.0,-2555.0,2572.5
-206.42,162.87,974.78,752.5,-2765.0,3780.0
-207.64,161.89,974.66,1085.0,-3150.0,4462.5
-208.86,160.67,974.17,787.5,-3552.5,5197.5
-210.33,159.45,973.8,1015.0,-3850.0,6772.5
-211.91,158.48,973.44,1715.0,-4200.0,8417.5
-213.62,157.62,972.58,2310.0,-4935.0,9905.0
-214.96,156.65,971.36,1452.5,-5810.0,12215.0
-215.45,155.67,970.51,-192.5,-5302.5,14157.5
-215.45,155.18,970.27,-1522.5,-4655.0,15575.0
-214.96,155.18,970.51,-1102.5,-5215.0,16345.0
-213.99,155.55,970.88,402.5,-6650.0,16520.0
-213.01,155.55,971.24,1942.5,-8295.0,16625.0
-211.79,155.18,971.73,3395.0,-9450.0,17587.5
-210.57,154.82,972.58,3517.5,-9362.5,19005.0
-209.11,154.33,973.32,1977.5,-8400.0,20370.0
-207.28,153.84,974.05,1032.5,-8312.5,21490.0
-204.96,153.48,975.02,1645.0,-8820.0,22242.5
-202.4,152.87,975.88,3237.5,-9327.5,23432.5
-199.35,152.5,976.49,4760.0,-9782.5,24762.5
-196.3,152.38,976.73,5687.5,-9782.5,25917.5
-193.49,152.62,976.49,6142.5,-9327.5,27615.0
-191.05,153.48,976.12,6597.5,-9677.5,29452.5
-188.37,155.18,975.39,6282.5,-11200.0,30152.5
-185.32,157.26,974.54,5250.0,-11637.5,30642.5
-182.02,159.33,974.05,3465.0,-11497.5,31010.0
-178.36,161.04,974.29,2415.0,-11025.0,31920.0
-174.09,162.99,975.51,2362.5,-9607.5,33057.5
-169.09,165.43,976.73,2117.5,-7787.5,33530.0
-163.97,168.12,978.2,1785.0,-7105.0,32672.5
-158.84,170.56,979.78,3307.5,-7280.0,33057.5
-153.23,173.0,981.12,5075.0,-6860.0,33215.0
-147.5,175.31,981.61,6405.0,-6982.5,33687.5
-141.28,177.75,981.73,6650.0,-6072.5,34265.0
-134.44,180.8,981.49,6317.5,-3937.5,33915.0
-127.49,184.1,980.76,6300.0,-3570.0,32847.5
-120.54,187.51,979.66,6597.5,-5372.5,31675.0
-113.95,190.81,978.81,6055.0,-5635.0,30852.5
-107.12,194.22,978.44,5180.0,-5320.0,30135.0
-100.28,197.64,978.2,4550.0,-5530.0,29120.0
-93.09,201.42,978.56,3657.5,-4462.5,27772.5
-85.89,205.2,979.17,3517.5,-3132.5,26215.0
-79.06,208.99,979.78,4217.5,-3517.5,24447.5
-72.35,212.77,980.39,4952.5,-4200.0,22995.0
-65.64,216.67,981.0,5302.5,-3185.0,21717.5
-58.8,220.82,981.12,4357.5,-2275.0,19862.5
-52.22,224.97,980.88,3500.0,-2065.0,17640.0
-45.99,228.75,981.0,3815.0,-1855.0,15977.5
-39.77,232.78,981.12,3570.0,-472.5,14297.5
-33.43,236.92,981.12,2467.5,787.5,12267.5
-26.6,241.32,981.37,1697.5,1732.5,9870.0
-19.89,245.95,981.98,1242.5,2572.5,6527.5
-13.66,250.1,982.22,2100.0,1750.0,2957.5
-7.81,253.88,982.1,3167.5,910.0,-245.0
-2.68,257.18,981.86,2485.0,1592.5,-3062.5
1.59,260.23,981.61,1312.5,2782.5,-5530.0
5.12,262.67,981.37,1470.0,2730.0,-7840.0
7.56,264.62,980.76,1925.0,2065.0,-10150.0
9.03,265.84,980.39,1137.5,2730.0,-11935.0
9.27,266.57,980.15,962.5,3272.5,-12950.0
8.91,266.94,979.66,1277.5,3115.0,-13545.0
8.54,267.42,978.93,1207.5,2537.5,-14262.5
8.17,268.03,977.83,875.0,2012.5,-15662.5
7.44,268.4,976.98,490.0,1522.5,-16922.5
6.22,268.64,976.49,-192.5,2065.0,-17535.0
4.88,268.52,976.12,-560.0,2625.0,-18025.0
3.54,268.64,975.51,-735.0,2537.5,-18935.0
2.2,268.4,974.78,-875.0,1627.5,-20247.5
0.37,267.67,974.54,-1172.5,1312.5,-20965.0
-1.95,266.69,974.9,-1750.0,2170.0,-21297.5
-4.39,265.59,975.27,-1645.0,2537.5,-21175.0
-7.32,264.25,975.63,-1365.0,2590.0,-20982.5
-10.37,262.79,976.0,-717.5,2835.0,-20667.5
-13.66,261.32,976.0,-717.5,2817.5,-20737.5
-16.84,259.86,975.88,-1102.5,2835.0,-20615.0
-20.13,258.4,975.76,-1417.5,3062.5,-20142.5
-23.06,257.3,975.76,-1610.0,3815.0,-19687.5
-25.38,256.69,975.27,-1942.5,3640.0,-20125.0
-27.33,256.44,974.66,-1522.5,2380.0,-21122.5
-29.4,256.08,974.17,-1085.0,2047.5,-21577.5
-30.99,255.83,973.8,-2117.5,2992.5,-21927.5
-32.33,255.71,973.56,-3412.5,3920.0,-22715.0
-33.79,255.59,973.56,-2677.5,3167.5,-23590.0
-35.38,255.35,973.32,-1470.0,1995.0,-24482.5
-37.09,254.74,973.07,-2152.5,2415.0,-25060.0
-38.8,253.88,973.19,-3430.0,3955.0,-25515.0
-40.99,252.66,973.8,-3132.5,3867.5,-26127.5
-43.19,251.32,974.66,-2100.0,2800.0,-26950.0
-45.87,249.49,975.51,-1400.0,2450.0,-28087.5
-49.04,247.42,976.37,-1155.0,2765.0,-27422.5
-51.73,245.83,977.46,-962.5,3902.5,-26810.0
-54.29,244.37,978.32,-1750.0,5617.5,-27335.0
-57.46,242.66,978.93,-927.5,5337.5,-27947.5
-61.0,240.83,979.17,-17.5,4987.5,-27982.5
-64.78,238.63,979.17,-927.5,6195.0,-27597.5
-68.44,236.8,979.05,-1557.5,6790.0,-27142.5
-72.22,235.09,978.56,-560.0,5862.5,-27405.0
-76.13,233.51,977.59,35.0,4567.5,-27772.5
-80.15,231.8,976.49,-787.5,4252.5,-27545.0
-84.18,229.85,976.0,-1907.5,5407.5,-27422.5
-89.06,227.65,976.0,-1365.0,5232.5,-27335.0
-94.06,225.09,975.51,122.5,3815.0,-26740.0
-99.19,222.53,974.78,-227.5,3605.0,-26005.0
-104.07,220.09,974.05,-1802.5,4410.0,-25252.5
-109.07,217.89,973.68,-2257.5,4777.5,-24552.5
-114.07,215.57,973.68,-1697.5,4602.5,-23765.0
-119.19,213.26,973.68,-1330.0,4375.0,-22715.0
-123.95,211.06,973.8,-910.0,4007.5,-21280.0
-127.86,209.35,974.17,-577.5,4690.0,-19845.0
-130.78,208.25,974.41,-315.0,5267.5,-20037.5
-134.08,207.16,973.8,927.5,3727.5,-20755.0
-137.98,205.57,972.83,1102.5,2345.0,-20685.0
-142.62,203.25,971.61,-227.5,2030.0,-20090.0
-147.62,200.57,970.88,-315.0,1067.5,-18917.5
-152.74,197.64,970.63,1067.5,-402.5,-17272.5
-157.87,194.71,970.51,1260.0,-577.5,-16030.0
-163.11,192.03,970.51,962.5,-455.0,-14682.5
-168.6,189.22,970.63,1802.5,-1225.0,-12635.0
-173.48,186.9,970.75,1645.0,-577.5,-10867.5
-178.36,184.34,970.63,367.5,157.5,-9695.0
-183.61,181.78,970.75,17.5,-735.0,-8172.5
-188.98,178.85,970.88,927.5,-1767.5,-6160.0
-194.22,176.05,971.0,1155.0,-1540.0,-3412.5
-199.35,173.24,971.0,1120.0,-1260.0,-595.0
-204.47,170.68,970.75,1540.0,-1627.5,2292.5
-209.11,168.36,970.14,2327.5,-2380.0,4952.5
-213.26,166.41,969.53,2275.0,-2905.0,7805.0
-216.18,165.07,968.8,1382.5,-3062.5,10412.5
-217.89,164.58,968.31,175.0,-2922.5,11690.0
-218.87,164.46,968.31,525.0,-3920.0,12722.5
-219.36,164.33,968.68,1907.5,-4655.0,13930.0
-219.6,164.46,968.68,1977.5,-4340.0,15225.0
-219.23,164.58,968.68,1802.5,-4130.0,16695.0
-218.14,165.31,968.68,1645.0,-3850.0,18025.0
-216.43,166.53,968.44,1400.0,-4025.0,18252.5
-214.35,167.87,968.19,1487.5,-4830.0,18340.0
-212.04,169.21,968.07,1120.0,-5215.0,18340.0
-210.21,170.43,968.19,1592.5,-5810.0,18672.5
-208.38,171.53,968.44,2135.0,-6037.5,19320.0
-206.55,172.75,968.31,1907.5,-5915.0,19775.0
-204.35,173.97,968.31,1610.0,-6072.5,20790.0
-201.79,175.44,968.56,1242.5,-5390.0,21385.0
-198.86,176.9,968.92,962.5,-5460.0,21297.5
-195.93,178.49,969.41,1557.5,-5915.0,21402.5
-193.25,179.83,970.14,1592.5,-5530.0,21385.0
-190.69,181.17,970.75,2222.5,-5775.0,21805.0
-188.12,182.51,971.0,2712.5,-5880.0,22540.0
-185.2,183.98,970.75,2555.0,-5880.0,22890.0
-181.9,185.32,970.51,1400.0,-5687.5,23082.5
-178.49,186.9,970.88,787.5,-5250.0,23117.5
-174.95,188.73,971.61,1487.5,-5162.5,23292.5
-170.8,191.05,971.85,1610.0,-5110.0,22767.5
-166.77,193.49,971.85,1260.0,-5320.0,21857.5
-163.36,195.2,971.85,1610.0,-5740.0,21315.0
-160.67,196.18,972.1,2345.0,-6300.0,21875.0
-158.11,196.91,972.34,2765.0,-6335.0,23205.0
-154.82,198.13,972.58,1855.0,-5057.5,23975.0
-151.04,199.59,972.58,875.0,-4515.0,23940.0
-147.13,201.42,972.95,1050.0,-4760.0,23415.0
-143.59,203.25,973.56,2065.0,-5495.0,22610.0
-140.79,204.47,974.05,2975.0,-6387.5,22540.0
-137.98,205.45,974.17,2572.5,-5862.5,23450.0
-135.05,206.42,974.41,2205.0,-5075.0,24027.5
-131.76,207.64,974.54,2520.0,-5057.5,24815.0
-127.86,209.35,974.29,2362.5,-4900.0,24465.0
-124.2,211.3,973.8,2082.5,-5810.0,23292.5
-120.9,212.65,973.32,2345.0,-6982.5,23047.5
-117.85,213.99,973.32,2502.5,-6685.0,23975.0
-114.07,215.57,973.32,1645.0,-5040.0,25200.0
-109.43,217.77,973.32,560.0,-4025.0,24832.5
-104.55,220.09,973.44,1277.5,-5302.5,23485.0
-99.8,222.28,973.8,2415.0,-6265.0,22172.5
-95.16,224.24,974.05,2835.0,-6090.0,21717.5
-90.16,226.68,974.05,2502.5,-5040.0,21980.0
-84.3,229.6,973.8,1260.0,-4095.0,20895.0
-78.2,232.65,973.68,1015.0,-4532.5,19215.0
-72.22,235.46,973.93,1172.5,-4515.0,17290.0
-66.49,238.14,974.17,1312.5,-4340.0,15540.0
-61.0,240.71,974.41,1207.5,-3955.0,14210.0
-56.0,242.9,974.66,665.0,-3290.0,12862.5
-51.0,244.98,974.9,420.0,-3010.0,11882.5
-45.75,247.05,975.51,17.5,-2170.0,10902.5
-40.5,249.49,976.37,-35.0,-1592.5,8925.0
-35.38,251.81,977.34,892.5,-2047.5,7017.5
-30.26,254.25,978.2,1137.5,-1400.0,5285.0
-24.89,256.81,978.93,490.0,-35.0,3377.5
-19.76,259.13,979.42,-122.5,805.0,1050.0
-14.76,261.45,979.9,297.5,630.0,-1470.0
-10.49,263.64,980.27,822.5,612.5,-3972.5
-6.59,265.59,980.15,805.0,857.5,-6072.5
-3.54,267.3,980.03,665.0,1015.0,-8032.5
-1.1,268.77,979.66,490.0,1295.0,-9975.0
0.73,269.62,979.17,-122.5,1960.0,-11585.0
1.95,270.11,978.68,-700.0,2415.0,-12862.5
2.68,270.47,978.44,-997.5,2660.0,-13947.5
3.05,270.6,978.2,-1032.5,2870.0,-14980.0
3.17,270.6,978.2,-1295.0,3115.0,-16065.0
2.68,270.35,978.2,-1137.5,2870.0,-17360.0
1.46,269.62,978.2,-647.5,2555.0,-18375.0
-0.12,268.64,978.2,-717.5,2905.0,-18532.5
-1.95,267.42,978.2,-1557.5,4042.5,-18462.5
-3.9,266.33,977.95,-1837.5,4252.5,-18672.5
-5.86,265.23,977.95,-1417.5,3727.5,-19285.0
-7.81,264.25,977.71,-1137.5,3430.0,-19985.0
-10.13,263.15,977.46,-927.5,3220.0,-20352.5
-12.69,262.06,977.1,-297.5,2975.0,-20562.5
-15.37,260.96,976.49,-87.5,2625.0,-20720.0
-18.06,259.74,975.51,-875.0,3010.0,-20650.0
-20.62,258.76,974.78,-1662.5,3500.0,-20475.0
-22.81,258.03,974.29,-2590.0,3832.5,-21035.0
-25.01,257.3,973.8,-2852.5,3290.0,-22172.5
-27.57,256.08,973.8,-1942.5,1977.5,-22557.5
-30.13,254.49,974.17,-2047.5,2327.5,-22277.5
-32.7,253.15,974.9,-2590.0,3552.5,-22102.5
-35.14,251.81,975.76,-2502.5,3832.5,-22557.5
-37.7,250.22,976.49,-1820.0,3220.0,-23222.5
-40.38,248.64,977.1,-945.0,3150.0,-23240.0
-43.19,247.17,977.59,-840.0,4060.0,-22610.0
-45.51,246.07,977.46,-1382.5,4987.5,-22802.5
-47.82,245.1,976.85,-1837.5,4672.5,-23607.5
-50.26,244.24,976.24,-1732.5,3867.5,-24202.5
-52.95,243.02,975.51,-2240.0,3902.5,-24587.5
-55.88,241.56,975.27,-2992.5,4410.0,-24692.5
-59.17,239.85,975.27,-3045.0,4567.5,-24640.0
-62.71,238.02,975.63,-2397.5,4025.0,-24290.0
-65.88,236.44,976.12,-1785.0,4480.0,-24097.5
-69.17,234.85,976.37,-1907.5,5022.5,-24167.5
-72.59,233.14,976.37,-2152.5,5145.0,-24342.5
-76.01,231.43,976.49,-2415.0,5057.5,-24342.5
-79.54,229.73,976.61,-2345.0,4830.0,-24325.0
-82.59,228.14,976.98,-1907.5,5022.5,-23922.5
-85.4,226.92,977.22,-1627.5,5757.5,-24027.5
-88.33,225.46,976.98,-1295.0,5145.0,-24780.0
-91.74,223.87,976.73,-1365.0,4567.5,-25305.0
-95.4,221.8,976.37,-1697.5,4795.0,-24990.0
-99.31,219.84,976.0,-2292.5,5407.5,-24255.0
-103.09,217.65,975.76,-1872.5,4812.5,-24517.5
-107.36,215.45,975.27,-787.5,3325.0,-24377.5
-111.75,213.01,974.9,-700.0,3080.0,-23765.0
-116.39,210.57,974.29,-1785.0,3990.0,-23047.5
-121.15,207.89,973.8,-2765.0,4165.0,-22487.5
-126.51,204.96,973.68,-2537.5,3255.0,-21752.5
-132.25,201.54,973.8,-1435.0,2135.0,-20667.5
-138.35,197.76,973.8,-1050.0,1732.5,-19040.0
-144.94,193.86,973.93,-787.5,1557.5,-17132.5
-152.01,189.71,974.05,-315.0,910.0,-15102.5
-159.58,185.32,973.93,297.5,-332.5,-12460.0
-167.26,180.8,973.68,682.5,-997.5,-9397.5
-175.07,176.41,973.56,1260.0,-1365.0,-6072.5
-182.76,171.9,973.32,1575.0,-1592.5,-2240.0
-189.95,167.87,972.83,1050.0,-1662.5,1627.5
-196.42,164.21,972.46,787.5,-2345.0,4847.5
-202.52,160.92,972.34,1085.0,-3150.0,8032.5
-208.13,157.62,972.34,1837.5,-3710.0,11690.0
-213.01,154.57,972.22,2047.5,-3955.0,15050.0
-216.67,151.89,971.97,1942.5,-4287.5,18620.0
-219.11,150.18,972.22,1645.0,-3710.0,21910.0
-220.09,149.57,972.34,1820.0,-3850.0,24080.0
-219.97,149.69,972.34,2135.0,-4725.0,25182.5
-219.36,150.06,972.34,2922.5,-6072.5,25900.0
-218.75,150.3,972.1,4287.5,-7437.5,26932.5
-218.26,150.55,971.85,4375.0,-7980.0,28997.5
-217.16,150.67,971.61,3657.5,-7752.5,31395.0
-215.09,151.16,971.61,3115.0,-7315.0,33022.5
-212.65,152.01,971.61,3360.0,-8277.5,33897.5
-209.84,152.99,972.1,3762.5,-9082.5,34545.0
-206.67,154.21,972.58,4077.5,-8697.5,35875.0
-203.01,155.79,973.07,3762.5,-7735.0,37310.0
-198.86,157.87,973.32,4007.5,-7665.0,38220.0
-194.47,160.19,973.07,4795.0,-8680.0,38150.0
-189.95,162.26,972.34,4742.5,-9467.5,38080.0
-185.81,163.97,971.73,4445.0,-9712.5,38710.0
-181.78,165.43,971.24,3902.5,-9345.0,39970.0
-177.39,167.14,970.88,3727.5,-9205.0,41667.5
-172.14,169.58,970.63,3482.5,-8732.5,42717.5
-165.8,172.63,970.39,2765.0,-8382.5,42717.5
-159.21,175.92,970.39,2590.0,-9100.0,41632.5
-152.87,179.1,970.39,4042.5,-10657.5,40757.5
-146.4,182.02,970.39,4602.5,-10815.0,40897.5
-139.08,185.32,970.27,3080.0,-8872.5,41720.0
-130.78,189.34,970.14,787.5,-7017.5,41107.5
-122.12,193.37,970.39,840.0,-7787.5,39200.0
-113.95,197.03,970.63,2485.0,-9922.5,37047.5
-105.9,200.32,970.88,2257.5,-9782.5,35892.5
-97.6,203.86,971.61,665.0,-7140.0,35997.5
-88.45,208.01,972.83,-752.5,-4462.5,35315.0
-78.69,212.77,974.05,-787.5,-3850.0,33442.5
-67.83,218.26,975.27,-140.0,-3517.5,31045.0
-56.12,224.48,976.49,17.5,-2450.0,27597.5
-43.92,230.95,977.34,140.0,-1907.5,23117.5
-31.96,237.41,977.95,682.5,-2240.0,18392.5
-20.25,243.51,978.44,770.0,-1540.0,13702.5
-9.15,249.37,979.17,-262.5,735.0,9887.5
1.1,255.1,979.78,-1172.5,3360.0,6527.5
10.74,260.59,979.9,-1995.0,4760.0,2380.0
19.52,265.59,979.54,-2940.0,4462.5,-3045.0
27.21,269.86,979.66,-2100.0,2502.5,-8627.5
33.18,273.04,980.15,-665.0,1557.5,-13632.5
37.33,275.23,980.51,-105.0,1837.5,-17272.5
39.65,276.09,980.64,-385.0,2520.0,-19250.0
40.99,276.33,980.64,-1032.5,3710.0,-20650.0
41.48,276.33,980.51,-1767.5,4725.0,-22540.0
41.11,275.72,980.15,-1627.5,4007.5,-24325.0
40.02,275.11,979.9,-1015.0,3202.5,-25760.0
38.43,274.13,979.66,-1435.0,3727.5,-27405.0
35.99,272.55,979.54,-1942.5,4217.5,-28332.5
32.94,270.35,979.66,-1855.0,4462.5,-28350.0
29.89,268.16,979.54,-1960.0,5320.0,-28385.0
26.72,266.2,979.42,-2957.5,5985.0,-29137.5
23.06,264.01,979.42,-2852.5,5635.0,-29837.5
19.03,261.57,979.78,-2345.0,5792.5,-29837.5
14.88,259.37,980.15,-1942.5,6282.5,-29592.5
10.98,257.05,979.9,-1872.5,6265.0,-29855.0
6.95,254.98,979.42,-1995.0,6090.0,-30135.0
2.93,253.15,978.81,-1977.5,5845.0,-30362.5
-0.98,251.56,977.71,-2275.0,5670.0,-30607.5
-4.88,249.86,976.61,-2625.0,4970.0,-31325.0
-9.15,247.78,975.63,-2415.0,3727.5,-31990.0
-13.54,245.46,975.02,-3377.5,4392.5,-31780.0
-18.3,242.9,975.02,-4690.0,5670.0,-31220.0
-23.3,240.34,975.63,-4112.5,5652.5,-30782.5
-28.3,237.66,976.24,-3027.5,5162.5,-30835.0
-33.18,235.09,976.73,-2415.0,4830.0,-30380.0
-38.31,232.41,977.1,-2940.0,5215.0,-30030.0
-43.31,229.6,977.71,-2502.5,4970.0,-29855.0
-48.56,226.68,978.2,-1452.5,4690.0,-29382.5
-53.8,223.38,978.56,-2502.5,6090.0,-27965.0
-59.29,220.09,979.17,-4270.0,8645.0,-26355.0
-64.9,217.04,980.03,-3832.5,8977.5,-25182.5
-70.15,214.35,980.64,-1855.0,7350.0,-24412.5
-75.15,212.16,980.64,-630.0,5810.0,-24710.0
-80.15,209.96,980.03,-157.5,4707.5,-24937.5
-85.4,207.77,979.17,-210.0,4515.0,-24272.5
-90.52,205.57,978.32,-1277.5,5302.5,-23257.5
-95.65,203.37,977.59,-1715.0,5040.0,-22260.0
-100.77,201.18,976.85,-1225.0,3850.0,-21875.0
-106.26,198.62,976.24,-892.5,2940.0,-21507.5
-112.12,195.69,975.76,-560.0,2275.0,-20055.0
-117.97,192.76,975.63,-1102.5,2765.0,-18025.0
-123.71,190.32,975.76,-1260.0,2940.0,-15995.0
-128.59,188.12,975.76,-700.0,2555.0,-14700.0
-133.22,186.17,975.51,-157.5,1435.0,-14035.0
-137.86,184.1,975.51,577.5,437.5,-12775.0
-142.37,182.27,975.39,700.0,805.0,-11567.5
-146.89,180.32,975.02,385.0,490.0,-10447.5
-151.4,178.12,974.41,-175.0,-175.0,-9135.0
-156.16,175.44,974.29,-700.0,-420.0,-7595.0
-161.41,172.26,974.78,-87.5,-1050.0,-5425.0
-167.14,168.97,975.63,875.0,-1225.0,-2625.0
-172.51,165.68,976.61,1505.0,-962.5,647.5
-177.39,162.87,977.34,1820.0,-192.5,3955.0
-181.29,160.8,977.71,2695.0,647.5,6317.5
-184.71,159.33,977.22,2415.0,-770.0,7647.5
-187.76,158.11,976.61,2485.0,-1802.5,9590.0
-190.32,157.14,976.0,2065.0,-1645.0,11812.5
-192.27,156.65,975.15,1890.0,-1907.5,13667.5
-193.49,156.65,974.17,1855.0,-2765.0,14997.5
-193.86,157.01,973.32,1750.0,-3745.0,16047.5
-193.61,157.62,972.83,1172.5,-3605.0,17115.0
-193.0,158.6,973.07,1557.5,-3535.0,17955.0
-191.78,159.82,973.07,2152.5,-4165.0,18550.0
-190.08,161.16,972.95,1680.0,-4375.0,18655.0
-188.37,162.26,973.19,1085.0,-4357.5,18445.0
-187.15,162.75,973.93,1890.0,-5302.5,18742.5
-186.29,162.99,974.78,3255.0,-6090.0,19757.5
-185.32,163.48,975.63,3360.0,-5232.5,21577.5
-183.61,164.33,976.12,2905.0,-3920.0,22767.5
-181.66,165.68,976.0,3552.5,-5092.5,22872.5
-179.58,167.14,975.27,4760.0,-7087.5,22785.0
-177.51,168.6,974.29,4462.5,-7402.5,23257.5
-175.31,170.19,973.44,3307.5,-6580.0,24290.0
-172.75,172.14,972.58,2450.0,-6037.5,25200.0
-169.46,174.46,971.85,2292.5,-6317.5,25532.5
-165.68,176.9,971.12,1382.5,-6580.0,24937.5
-162.02,178.97,970.75,630.0,-6947.5,24185.0
-158.72,180.8,971.36,1557.5,-7700.0,24220.0
-155.18,182.39,971.97,2292.5,-7700.0,24587.5
-151.52,183.98,972.58,1715.0,-7017.5,24902.5
-147.38,185.44,973.44,1540.0,-6405.0,25340.0
-143.23,187.15,974.66,2152.5,-6352.5,25305.0
-139.08,188.86,975.63,3290.0,-7000.0,24762.5
-135.18,190.56,976.24,3150.0,-6877.5,24465.0
-131.15,192.03,976.85,2817.5,-6265.0,24797.5
-127.0,193.86,977.46,2537.5,-5075.0,25620.0
-122.49,195.93,977.95,2275.0,-4340.0,25567.5
-117.61,198.37,978.2,2817.5,-4935.0,24465.0
-113.09,200.57,978.44,3010.0,-5512.5,23030.0
-109.07,202.4,978.44,3360.0,-6107.5,22347.5
-105.65,203.98,978.68,3482.5,-5950.0,22645.0
-101.87,205.57,978.93,3045.0,-4655.0,23187.5
-97.84,207.52,979.17,2730.0,-3902.5,23555.0
-93.45,209.84,979.42,2485.0,-3500.0,22732.5
-89.06,212.04,979.42,2502.5,-3675.0,21262.5
-85.03,213.87,979.42,3185.0,-4427.5,20597.5
-81.37,215.45,979.17,3482.5,-4357.5,20650.0
-77.96,217.04,978.81,2975.0,-3675.0,20510.0
-74.54,218.62,978.07,2922.5,-3675.0,20440.0
-71.13,220.09,977.1,1995.0,-3657.5,20195.0
-67.71,221.67,976.61,752.5,-3412.5,19845.0
-64.17,223.38,976.85,1137.5,-3482.5,19652.5
-60.76,225.21,977.1,1872.5,-3500.0,19267.5
-57.34,226.8,977.22,2450.0,-3692.5,18655.0
-54.17,228.26,977.1,1610.0,-3010.0,17972.5
-51.24,229.48,977.22,1452.5,-2870.0,18147.5
-47.95,230.82,977.22,1540.0,-2432.5,18602.5
-44.29,232.29,977.22,735.0,-1435.0,18060.0
-40.75,233.75,977.46,1120.0,-2520.0,17202.5
-37.21,235.34,977.59,2030.0,-3255.0,16012.5
-33.43,236.92,977.71,1032.5,-2012.5,15435.0
-29.52,238.63,977.95,280.0,-1050.0,14840.0
-25.86,240.58,978.44,612.5,-892.5,13720.0
-22.2,242.41,978.32,1907.5,-2065.0,12477.5
-18.42,244.24,977.71,1872.5,-2240.0,11655.0
-14.27,246.32,977.1,175.0,-910.0,10465.0
-10.0,248.39,976.73,-315.0,-787.5,9100.0
-5.86,250.34,976.73,122.5,-1190.0,7577.5
-1.59,252.42,977.22,630.0,-1050.0,6002.5
2.81,254.61,977.46,665.0,-402.5,4497.5
7.2,256.93,977.71,-35.0,245.0,2590.0
11.71,259.37,977.95,-210.0,560.0,122.5
15.74,261.57,978.2,-262.5,770.0,-2362.5
19.4,263.52,978.2,35.0,857.5,-4217.5
22.94,265.35,978.2,-437.5,1627.5,-6055.0
25.86,266.81,978.07,-857.5,1925.0,-8312.5
28.06,267.91,978.2,-280.0,1470.0,-10430.0
29.28,268.28,978.32,0.0,1662.5,-12022.5
30.01,268.28,978.2,-787.5,2222.5,-12967.5
30.13,267.91,978.2,-1662.5,3255.0,-13685.0
30.01,267.42,978.56,-1680.0,3517.5,-14402.5
29.4,266.81,978.93,-1050.0,3465.0,-15137.5
28.67,266.33,979.42,-700.0,3605.0,-15855.0
27.94,265.96,979.54,-1137.5,4147.5,-16677.5
27.08,265.35,979.66,-1697.5,4900.0,-17342.5
25.99,264.74,979.9,-1837.5,5530.0,-18200.0
24.64,264.25,979.78,-1312.5,5162.5,-19127.5
22.94,263.64,979.54,-822.5,4830.0,-19757.5
20.98,262.91,979.17,-1242.5,5057.5,-20527.5
18.79,262.18,978.56,-1522.5,4655.0,-21035.0
16.71,261.32,978.2,-1680.0,4480.0,-21437.5
14.76,260.59,978.2,-2345.0,5372.5,-22137.5
12.57,259.62,978.44,-2257.5,5547.5,-22837.5
9.88,258.4,978.68,-1067.5,5110.0,-23012.5
7.08,257.05,978.93,-472.5,5337.5,-23030.0
4.27,255.71,978.68,-1120.0,5880.0,-23187.5
1.46,254.37,978.32,-1277.5,5740.0,-23467.5
-1.34,253.27,977.95,-1260.0,5635.0,-24167.5
-4.27,252.05,977.46,-1732.5,5547.5,-24535.0
-7.32,250.95,976.98,-2432.5,5862.5,-24920.0
-10.61,249.86,976.98,-2397.5,5565.0,-25305.0
-13.91,248.76,976.98,-1785.0,5250.0,-25760.0
-17.32,247.42,977.1,-1750.0,5547.5,-26092.5
-20.86,246.07,977.34,-2065.0,6545.0,-25882.5
-24.28,244.61,977.59,-2730.0,7525.0,-26092.5
-28.06,243.02,977.83,-2695.0,7332.5,-26425.0
-31.84,241.32,978.07,-2432.5,7070.0,-26775.0
-35.87,239.36,978.44,-2065.0,7192.5,-26477.5
-40.02,237.41,978.68,-1942.5,7595.0,-26162.5
-44.16,235.46,978.93,-2205.0,8295.0,-25777.5
-48.43,233.75,979.05,-3360.0,9660.0,-25812.5
-52.83,231.43,979.66,-2537.5,9607.5,-25865.0
-57.46,229.6,979.42,-1977.5,12057.5,-24097.5
-62.46,227.77,978.56,-4357.5,12022.5,-25725.0
-67.1,225.7,978.32,-2887.5,11585.0,-23730.0
-71.25,224.6,977.83,-1557.5,11182.5,-24745.0
-75.76,223.02,977.22,-2135.0,9362.5,-26757.5
-81.01,220.94,976.61,-1137.5,7665.0,-26355.0
-86.13,218.62,976.24,-1505.0,8085.0,-25077.5
-90.89,216.67,976.24,-3045.0,9957.5,-24185.0
-95.4,214.6,976.73,-5425.0,13125.0,-23625.0
-100.28,212.52,977.34,-6195.0,17115.0,-22697.5
-106.14,210.33,977.22,-5477.5,17237.5,-22312.5
-111.75,208.25,976.37,-4340.0,16100.0,-22417.5
-117.0,205.94,975.39,-5792.5,16310.0,-22487.5
-122.61,203.37,974.78,-5600.0,15907.5,-22277.5
-128.59,200.81,974.41,-3972.5,14892.5,-21315.0
-134.69,198.25,973.8,-3220.0,15540.0,-20615.0
-140.54,196.18,972.83,-5407.5,18025.0,-20300.0
-146.64,193.74,971.49,-7315.0,18725.0,-20020.0
-152.74,191.3,970.02,-6037.5,15872.5,-19425.0
-158.36,189.1,968.8,-5302.5,14402.5,-19285.0
-163.85,186.9,967.7,-5162.5,14070.0,-19302.5
-169.7,184.46,966.73,-3675.0,12215.0,-18777.5
-175.56,181.9,966.0,-2275.0,10640.0,-18112.5
-181.54,179.34,965.26,-4182.5,13807.5,-16485.0
-187.64,176.78,964.29,-7752.5,18147.5,-14542.5
-193.49,174.34,963.19,-8435.0,17640.0,-14332.5
-199.35,171.65,962.21,-5355.0,12652.5,-15820.0
-205.69,168.24,961.6,-1400.0,7490.0,-17045.0
-213.01,163.97,961.12,-437.5,6457.5,-16450.0
-221.31,159.33,960.63,-3220.0,9677.5,-12880.0
-229.48,154.82,960.51,-5512.5,12372.5,-9485.0
-237.41,150.55,960.38,-3307.5,9555.0,-8610.0
-245.22,146.28,959.9,2205.0,2170.0,-10010.0
-253.64,141.4,958.92,6527.5,-3815.0,-10815.0
-263.4,135.79,958.07,6405.0,-4252.5,-7122.5
-273.28,130.42,957.33,3535.0,-1295.0,-280.0
-281.7,126.39,956.48,2467.5,-367.5,5075.0
-288.41,123.46,955.14,2537.5,-2327.5,7490.0
-293.9,121.02,953.55,3115.0,-5215.0,8627.5
-299.02,118.83,952.45,3832.5,-6807.5,10727.5
-303.41,117.0,951.48,5267.5,-7927.5,14280.0
-306.1,116.27,950.26,5512.5,-8330.0,17272.5
-306.95,116.51,948.92,5127.5,-9940.0,18497.5
-306.95,117.36,948.06,5827.5,-12600.0,18025.0
-306.46,118.1,948.18,4637.5,-12792.5,16992.5
-306.34,118.34,949.16,3010.0,-11217.5,17762.5
-306.22,118.58,950.62,4077.5,-11602.5,20440.0
-304.88,119.32,952.09,5127.5,-11830.0,22522.5
-302.68,120.66,953.43,5232.5,-11375.0,22767.5
-300.24,122.0,954.77,6457.5,-11567.5,22872.5
-298.17,123.46,955.75,7630.0,-12495.0,23467.5
-295.73,125.17,956.48,8732.5,-13177.5,24220.0
-292.92,126.88,956.97,7227.5,-10745.0,25427.5
-289.87,129.08,957.46,4165.0,-6440.0,27510.0
-286.21,131.76,957.58,1872.5,-3500.0,28682.5
-282.31,134.81,957.46,1032.5,-3342.5,28682.5
-278.4,137.86,957.21,2310.0,-5320.0,27772.5
-274.62,140.54,956.97,2992.5,-6160.0,27597.5
-270.96,143.35,957.09,1260.0,-4077.5,28735.0
-266.94,146.52,957.33,140.0,-2555.0,29242.5
-262.91,149.82,957.21,87.5,-2730.0,28717.5
-259.13,153.11,956.72,735.0,-4567.5,27387.5
-255.96,155.67,956.24,140.0,-4707.5,27055.0
-252.91,157.87,955.75,-1890.0,-2625.0,28542.5
-249.37,160.31,955.5,-3430.0,-1137.5,29540.0
-245.46,162.99,955.14,-2345.0,-2870.0,29347.5
-241.32,165.68,954.77,-1137.5,-4952.5,28122.5
-237.66,167.99,954.77,-2152.5,-4672.5,27475.0
-234.48,169.95,955.02,-2642.5,-4182.5,27842.5
-231.31,171.78,955.63,-3220.0,-3202.5,28577.5
-228.14,173.48,956.48,-4550.0,-927.5,29312.5
-224.97,174.95,957.46,-5565.0,367.5,29610.0
-222.04,176.41,958.43,-6125.0,1925.0,30415.0
-218.87,177.75,959.29,-6125.0,1732.5,31272.5
-214.84,179.46,959.9,-5267.5,-402.5,30992.5
-210.33,181.54,961.12,-3605.0,-2415.0,29452.5
-206.18,183.73,962.58,-2100.0,-2887.5,28035.0
-202.64,185.44,964.04,-1120.0,-1627.5,27930.0
-199.1,187.03,964.65,315.0,-1085.0,28577.5
-195.44,188.61,964.53,122.5,-1820.0,28752.5
-191.3,190.56,964.29,-1242.5,-927.5,29032.5
-187.03,192.64,964.53,-2572.5,0.0,27895.0
-183.12,194.71,964.29,-2275.0,-1242.5,26460.0
-179.58,196.66,964.04,-2030.0,-3780.0,25182.5
-176.17,198.13,964.04,-1435.0,-4585.0,24027.5
-172.87,199.59,964.78,-1592.5,-3290.0,24377.5
-169.82,201.06,965.39,-2345.0,-1592.5,24657.5
-166.41,202.64,966.12,-2555.0,-1085.0,24587.5
-162.99,204.23,966.97,-2450.0,-630.0,23537.5
-159.94,205.69,967.58,-3902.5,262.5,22365.0
-157.38,206.67,968.44,-5390.0,1592.5,22015.0
-154.7,207.4,969.53,-4760.0,1470.0,22207.5
-151.77,208.25,970.63,-3185.0,927.5,22295.0
-148.84,209.23,971.36,-1505.0,-332.5,21612.5
-146.03,210.33,971.85,-140.0,-1207.5,20527.5
-143.47,211.3,972.34,-1032.5,227.5,19547.5
-141.03,212.04,972.71,-2572.5,2817.5,19967.5
-138.47,213.01,973.44,-4077.5,5600.0,20912.5
-135.66,214.11,974.29,-5740.0,9310.0,21087.5
-132.61,215.45,975.15,-6527.5,10937.5,20772.5
-129.44,216.79,976.24,-5040.0,9817.5,19757.5
-125.9,218.38,977.22,-2940.0,8347.5,18042.5
-122.12,220.33,977.95,0.0,5565.0,14980.0
-118.1,222.28,978.44,1575.0,2800.0,11182.5
-114.56,224.48,978.93,1540.0,2712.5,8190.0
-111.51,226.19,979.66,157.5,4515.0,6247.5
-108.82,227.65,980.88,-1802.5,8855.0,5600.0
-106.75,229.24,981.86,-2222.5,11532.5,4095.0
-105.29,230.34,982.34,-1155.0,10447.5,2310.0
-104.19,231.31,981.98,1890.0,6125.0,455.0
-102.97,232.41,981.49,2712.5,4270.0,-1820.0
-102.11,233.26,981.49,1365.0,5915.0,-3902.5
-102.24,233.75,981.73,350.0,8102.5,-5127.5
-103.33,233.87,981.49,490.0,8610.0,-5967.5
-104.68,233.87,980.64,1085.0,7192.5,-7087.5
-106.14,233.63,979.66,1732.5,4357.5,-8540.0
-107.97,233.26,979.17,1627.5,3307.5,-9800.0
-110.29,232.53,979.17,2222.5,3780.0,-10062.5
-113.09,231.8,979.05,1242.5,6125.0,-9555.0
-115.9,230.95,978.81,-542.5,8592.5,-9082.5
-118.83,230.09,978.44,175.0,7822.5,-9415.0
-121.63,229.48,977.71,1400.0,6002.5,-10185.0
-124.68,228.87,976.98,1960.0,6002.5,-10465.0
-127.86,228.14,976.49,1120.0,7245.0,-10552.5
-130.78,227.41,976.0,-122.5,8190.0,-10447.5
-133.96,226.43,975.76,-507.5,9415.0,-10027.5
-137.37,225.7,975.63,-612.5,10955.0,-9852.5
-140.91,224.72,975.51,-892.5,13055.0,-9450.0
-143.96,223.99,975.39,-682.5,16415.0,-8155.0
-146.89,223.26,974.54,-822.5,18445.0,-7630.0
-149.57,223.02,973.19,-1172.5,17150.0,-8347.5
-152.01,222.89,972.1,-1137.5,14927.5,-9485.0
-154.09,223.26,971.49,-1190.0,13702.5,-10482.5
-155.55,223.99,971.0,245.0,12390.0,-11970.0
-157.14,224.97,969.9,787.5,10377.5,-14717.5
-159.33,225.21,968.92,-140.0,11497.5,-15907.5
-161.77,224.97,968.19,-3027.5,15050.0,-15872.5
-163.97,224.6,968.07,-4812.5,15942.5,-16555.0
-165.92,224.24,968.19,-3307.5,13597.5,-18392.5
-168.12,223.75,968.68,-717.5,10132.5,-21297.5
-171.04,223.02,969.41,3062.5,6615.0,-23870.0
-174.22,222.04,969.66,5687.5,4130.0,-25567.5
-177.75,220.58,969.66,4620.0,5267.5,-26407.5
-181.78,218.87,970.14,2940.0,8890.0,-25847.5
-186.17,217.04,969.9,3570.0,9782.5,-25357.5
-190.08,215.7,968.8,4445.0,8645.0,-26582.5
-193.98,214.11,967.58,3902.5,8505.0,-28280.0
-198.49,212.28,966.97,3132.5,9782.5,-28542.5
-203.5,210.33,966.12,4637.5,9432.5,-28560.0
-208.62,208.25,964.78,6720.0,7577.5,-29032.5
-213.74,206.3,963.07,7140.0,7035.0,-29400.0
-218.99,204.23,961.36,6212.5,8435.0,-29575.0
-224.36,202.03,959.65,4935.0,9275.0,-29137.5
-229.85,199.96,958.31,4340.0,9467.5,-28682.5
-234.97,198.13,957.21,4147.5,9870.0,-28525.0
-239.97,196.42,956.11,4602.5,9975.0,-28875.0
-245.22,194.71,955.02,4462.5,10325.0,-29505.0
-251.08,192.52,953.67,5110.0,9625.0,-29960.0
-257.18,189.95,952.33,4882.5,9800.0,-29452.5
-263.4,187.27,950.99,4497.5,10937.5,-28665.0
-269.74,184.59,949.53,4497.5,11235.0,-27930.0
-276.21,181.78,947.82,5162.5,10307.5,-27702.5
-283.28,178.61,945.99,6020.0,9065.0,-26827.5
-290.6,175.68,944.04,5337.5,9642.5,-25007.5
-297.44,172.87,941.96,4357.5,10412.5,-23450.0
-304.15,170.56,939.4,4655.0,9275.0,-22750.0
-310.73,168.36,936.72,4200.0,8697.5,-22242.5
-317.69,165.8,933.91,4147.5,7717.5,-21717.5
-325.01,162.87,931.23,3937.5,6702.5,-20492.5
-332.33,159.94,928.79,3745.0,5722.5,-18830.0
-339.65,157.14,926.47,3307.5,5477.5,-16695.0
-346.48,154.57,924.27,2205.0,5390.0,-14507.5
-353.07,152.26,922.32,1522.5,4935.0,-12495.0
-359.17,150.18,920.49,1960.0,3762.5,-11602.5
-365.51,147.99,918.54,2275.0,2100.0,-10867.5
-372.1,145.06,916.59,1837.5,1697.5,-9432.5
-379.42,141.76,914.76,735.0,2065.0,-6877.5
-386.98,138.35,912.8,875.0,1085.0,-3570.0
-393.94,135.42,910.36,717.5,-647.5,-472.5
-400.04,132.98,907.68,-682.5,-2100.0,1732.5
-405.16,130.91,905.73,-2467.5,-2205.0,3692.5
-410.04,128.95,904.51,-2782.5,-2800.0,5880.0
-414.56,127.0,903.53,-1960.0,-4602.5,8785.0
-418.34,125.42,902.92,-1680.0,-5512.5,11760.0
-420.9,124.32,902.43,-2100.0,-4882.5,14297.5
-422.49,123.46,901.82,-2730.0,-4252.5,16467.5
-423.1,123.34,901.21,-3832.5,-3920.0,18165.0
-422.85,123.71,901.09,-4147.5,-4305.0,18655.0
-422.24,124.2,901.09,-4585.0,-4882.5,19302.5
-421.27,124.93,901.21,-5390.0,-4760.0,20125.0
-420.05,125.66,901.58,-5670.0,-5285.0,20527.5
-418.58,126.27,902.31,-5722.5,-6107.5,20807.5
-417.0,126.64,903.53,-5407.5,-5810.0,21595.0
-415.17,127.25,905.0,-4532.5,-6090.0,22627.5
-412.97,128.22,906.34,-3605.0,-6755.0,22645.0
-410.65,129.08,907.44,-4077.5,-6142.5,22960.0
-408.7,129.93,908.17,-5040.0,-5757.5,23712.5
-406.5,130.78,908.9,-4847.5,-7297.5,24220.0
-404.19,131.76,909.88,-4637.5,-7560.0,24885.0
-401.62,132.74,911.1,-6072.5,-5477.5,25707.5
-398.82,133.96,912.56,-6737.5,-4620.0,26040.0
-395.89,135.42,913.66,-5285.0,-5845.0,26092.5
-392.72,136.88,914.39,-4777.5,-6737.5,26127.5
-389.42,138.35,915.24,-5757.5,-5985.0,26197.5
-386.13,139.81,916.22,-5285.0,-6160.0,26390.0
-382.71,141.28,916.83,-3762.5,-7227.5,26512.5
-379.3,142.74,917.56,-4322.5,-7910.0,26162.5
-376.0,144.08,918.42,-4427.5,-8190.0,26617.5
-372.1,145.67,919.51,-4287.5,-8627.5,27072.5
-367.71,147.74,920.98,-5705.0,-6720.0,27580.0
-362.95,149.82,922.81,-7892.5,-3727.5,27807.5
-358.19,151.65,925.25,-9152.5,-1592.5,28105.0
-353.68,153.23,928.05,-9152.5,-1050.0,28175.0
-348.92,154.57,930.98,-8085.0,-577.5,27790.0
-344.77,156.04,933.3,-6055.0,-1365.0,26582.5
-341.36,157.14,935.25,-4777.5,-1260.0,25970.0
-338.43,158.23,937.2,-5740.0,2310.0,27265.0
-335.5,159.45,938.67,-6685.0,5950.0,28875.0
-332.45,161.04,939.52,-6667.5,6335.0,29295.0
-329.03,162.99,940.01,-5547.5,5075.0,28105.0
-325.62,164.82,940.13,-4322.5,3867.5,26197.5
-322.81,166.41,939.64,-3605.0,1540.0,24570.0
-320.86,167.87,939.16,-2800.0,-840.0,23310.0
-318.91,169.21,938.91,-3482.5,-945.0,23555.0
-316.35,170.8,938.67,-3850.0,-892.5,23957.5
-313.3,173.0,938.67,-4130.0,-1207.5,22645.0
-310.37,174.95,938.79,-4322.5,-1522.5,20895.0
-307.81,176.41,939.4,-4305.0,-1890.0,19757.5
-305.73,177.63,940.25,-4900.0,-1277.5,19460.0
-303.41,178.85,941.47,-3692.5,-2502.5,19372.5
-300.24,180.68,942.69,-577.5,-4970.0,18235.0
-296.46,182.88,943.43,752.5,-5862.5,15785.0
-293.17,184.95,944.04,140.0,-6002.5,13510.0
-290.12,187.03,944.52,175.0,-6755.0,12565.0
-286.33,189.22,945.01,770.0,-7525.0,12092.5
-281.58,191.91,945.38,245.0,-7280.0,10360.0
-276.21,194.96,945.99,-927.5,-6807.5,7210.0
-270.84,198.01,947.09,-1715.0,-6825.0,4007.5
-265.72,200.57,948.67,-875.0,-7420.0,1277.5
-261.2,202.64,950.62,297.5,-7805.0,-1067.5
-257.18,204.35,952.94,2607.5,-8085.0,-2677.5
-253.76,205.45,955.14,6387.5,-9257.5,-3482.5
-250.71,206.3,956.48,12845.0,-14087.5,-3972.5
-247.9,207.52,956.85,16607.5,-20002.5,-5985.0
-245.59,209.11,957.21,11515.0,-15680.0,-10167.5
-244.24,209.84,957.58,6580.0,-11042.5,-11322.5
-243.27,210.08,957.82,5057.5,-9922.5,-10570.0
-242.29,210.57,958.55,3167.5,-5932.5,-10237.5
-241.32,210.82,959.16,1067.5,-2065.0,-10045.0
-240.34,211.18,959.65,1540.0,-2082.5,-9940.0
-239.36,211.55,959.9,3622.5,-3412.5,-10360.0
-238.27,212.04,959.9,4620.0,-4235.0,-10797.5
-236.92,212.65,959.9,4462.5,-4270.0,-11095.0
-236.07,213.13,960.38,3517.5,-2485.0,-11690.0
-235.46,213.5,960.51,3045.0,-840.0,-11760.0
-234.61,213.74,960.02,2905.0,-1575.0,-12005.0
-233.39,214.23,960.02,3552.5,-3185.0,-13265.0
-232.65,214.6,960.26,5215.0,-4690.0,-14157.5
-232.17,214.96,959.9,8505.0,-8890.0,-14542.5
-231.31,215.7,958.92,10937.5,-14192.5,-16187.5
-230.34,216.43,958.07,11952.5,-16555.0,-17377.5
-229.48,216.92,957.46,11130.0,-15190.0,-18235.0
-228.99,216.92,956.36,9275.0,-13370.0,-19197.5
-229.12,216.67,954.77,8435.0,-17430.0,-19582.5
-229.6,216.43,954.28,8225.0,-22102.5,-19722.5
-229.85,215.94,955.75,6317.5,-17587.5,-18480.0
-230.09,215.45,957.7,2660.0,-8155.0,-16100.0
-230.21,214.96,959.29,-630.0,-1732.5,-14122.5
-229.85,214.72,960.38,-227.5,-962.5,-13142.5
-229.12,214.96,961.12,2817.5,-3937.5,-13632.5
-228.14,215.33,960.99,6282.5,-8487.5,-14402.5
-226.8,215.82,960.38,9187.5,-13527.5,-14560.0
-224.72,216.67,960.26,9170.0,-14280.0,-14892.5
-222.28,217.89,960.63,5547.5,-8382.5,-15400.0
-220.09,218.87,960.87,2450.0,-3430.0,-15295.0
-218.01,219.84,960.75,1487.5,-2345.0,-15960.0
-216.18,220.58,960.87,1260.0,-1837.5,-16940.0
-214.96,220.82,960.99,2257.5,-2800.0,-17517.5
-214.35,220.58,961.12,4882.5,-4725.0,-17202.5
-213.74,220.7,960.87,7280.0,-6755.0,-16905.0
-213.01,220.94,960.14,7980.0,-8085.0,-17150.0
-212.28,221.43,959.9,4847.5,-6422.5,-18532.5
-211.91,221.43,960.02,2065.0,-3640.0,-18970.0
-212.16,220.94,960.38,2310.0,-4585.0,-18742.5
-212.52,220.33,960.99,4795.0,-7367.5,-18305.0
-212.52,219.84,961.85,7000.0,-8942.5,-17517.5
-212.28,219.97,962.09,9082.5,-10780.0,-17237.5
-211.55,220.58,961.48,10430.0,-13160.0,-17727.5
-210.45,221.19,960.63,10937.5,-16275.0,-19040.0
-209.35,221.8,960.14,11497.5,-18392.5,-20352.5
-208.62,222.04,960.51,11830.0,-17570.0,-20580.0
-208.01,221.92,961.12,12022.5,-16100.0,-19565.0
-207.64,222.28,961.36,12740.0,-15522.5,-19285.0
-207.03,222.89,961.12,11025.0,-14490.0,-19460.0
-206.18,223.75,961.12,8592.5,-12792.5,-19232.5
-204.96,224.48,961.36,6702.5,-10167.5,-18690.0
-203.62,225.21,961.6,5215.0,-7472.5,-17815.0
-202.28,225.94,961.6,3675.0,-4970.0,-17342.5
-201.18,226.55,961.6,2397.5,-3482.5,-17027.5
-200.2,227.04,961.36,1942.5,-3220.0,-16607.5
-199.23,227.77,961.36,2205.0,-3710.0,-15925.0
-197.88,228.63,961.36,2660.0,-4917.5,-15750.0
-196.18,229.24,961.48,3010.0,-4865.0,-15715.0
-194.96,229.85,961.85,3062.5,-4287.5,-15610.0
-193.98,230.09,962.09,3027.5,-4410.0,-15715.0
-192.76,230.7,962.46,2327.5,-3920.0,-16117.5
-191.78,231.19,962.82,1120.0,-2625.0,-16835.0
-191.54,231.56,963.31,1382.5,-3202.5,-16712.5
-191.54,231.8,963.56,3762.5,-5652.5,-16292.5
-191.66,232.17,963.31,5547.5,-8032.5,-16240.0
-191.17,232.53,962.46,5845.0,-9135.0,-15890.0
-190.2,232.78,962.34,5320.0,-8102.5,-15015.0
-188.98,233.39,962.58,4200.0,-4777.5,-14315.0
-187.88,234.24,962.46,2222.5,-1767.5,-14245.0
-186.9,235.09,961.97,1680.0,-2345.0,-14350.0
-185.81,236.19,961.24,2432.5,-4707.5,-15190.0
-184.71,236.92,960.51,2887.5,-5845.0,-16170.0
-184.1,237.29,959.53,3447.5,-7402.5,-16747.5
-183.85,237.29,957.82,4200.0,-11480.0,-17675.0
-184.1,236.92,956.24,5705.0,-19005.0,-19372.5
-185.07,235.95,956.36,8592.5,-25270.0,-19967.5
-187.15,234.36,958.19,11742.5,-27965.0,-18462.5
-189.83,232.04,960.63,14997.5,-27230.0,-15907.5
-192.39,229.12,962.82,15785.0,-21437.5,-11252.5
-194.96,226.8,964.29,10832.5,-12442.5,-6772.5
-197.4,224.72,965.14,5687.5,-4777.5,-2222.5
-199.59,223.26,965.39,3780.0,-2275.0,1225.0
-201.06,222.53,965.02,3062.5,-1645.0,3780.0
-202.28,222.28,964.78,2345.0,-2975.0,5320.0
-203.25,221.92,964.53,5180.0,-5530.0,7560.0
-203.5,221.92,964.29,6842.5,-5180.0,10325.0
-203.13,222.53,963.8,5880.0,-4287.5,12547.5
-201.79,223.5,962.95,5565.0,-3622.5,14455.0
-199.59,224.85,961.85,3815.0,-2537.5,15417.5
-197.27,226.68,960.99,2275.0,-2152.5,15907.5
-194.96,228.38,960.63,2992.5,-4165.0,16240.0
-192.15,229.85,960.38,4462.5,-5232.5,17132.5
-189.34,231.56,960.14,3657.5,-4060.0,17885.0
-186.42,233.02,960.02,2660.0,-2485.0,18970.0
-183.49,234.48,959.77,2292.5,-1732.5,20230.0
-180.07,236.19,959.53,1662.5,-2187.5,20842.5
-176.9,238.02,959.9,1067.5,-2205.0,21227.5
-173.97,240.1,960.87,2012.5,-3622.5,21367.5
-170.8,242.05,961.73,5792.5,-6912.5,21805.0
-166.9,244.0,961.97,7647.5,-7122.5,22487.5
-162.26,246.2,961.36,5530.0,-5040.0,22820.0
-157.26,249.0,960.51,3237.5,-2782.5,22820.0
-152.01,252.05,959.65,2082.5,-1960.0,21927.5
-147.13,254.98,958.68,1417.5,-2572.5,21087.5
-142.62,257.54,958.07,1242.5,-3377.5,20650.0
-138.47,259.86,957.94,1330.0,-3657.5,20527.5
-134.44,262.18,958.07,2030.0,-3920.0,20440.0
-130.3,264.5,957.94,2432.5,-4252.5,20230.0
-126.39,266.45,957.7,2450.0,-4357.5,19845.0
-122.49,268.4,957.46,1557.5,-3622.5,19740.0
-119.07,270.11,957.33,1172.5,-3482.5,19635.0
-115.78,271.69,957.21,1715.0,-4182.5,19792.5
-112.85,273.04,956.97,2047.5,-5267.5,19705.0
-110.29,274.13,957.09,2695.0,-6860.0,19827.5
-107.6,274.87,957.46,4130.0,-7192.5,20702.5
-104.68,275.84,957.46,3675.0,-5687.5,21490.0
-101.5,276.94,956.97,1750.0,-4130.0,21875.0
-98.21,278.04,956.85,1015.0,-3780.0,22207.5
-94.92,279.26,957.21,1172.5,-4112.5,22225.0
-91.38,280.48,957.58,1942.5,-4567.5,22312.5
-87.96,281.58,957.7,2660.0,-5337.5,22435.0
-84.42,282.67,957.7,2957.5,-5705.0,22557.5
-81.01,283.77,957.94,3692.5,-6160.0,23065.0
-76.86,285.11,958.19,3920.0,-5617.5,23800.0
-71.98,286.94,958.07,2625.0,-3937.5,23520.0
-66.86,289.02,957.94,2100.0,-3745.0,22750.0
-61.98,290.85,957.82,3272.5,-5162.5,22120.0
-57.34,292.8,957.58,3885.0,-5582.5,21437.5
-52.7,294.51,957.21,2992.5,-4882.5,20772.5
-48.07,295.97,956.97,2292.5,-4392.5,20877.5
-42.94,297.92,957.21,2065.0,-3902.5,20457.5
-37.58,300.36,957.33,2642.5,-4742.5,19355.0
-32.09,302.68,957.33,3185.0,-5460.0,17955.0
-26.6,305.0,957.21,3097.5,-5040.0,17010.0
-20.86,307.07,957.21,2555.0,-4427.5,16030.0
-15.25,309.39,957.46,2870.0,-3937.5,15190.0
-9.52,311.83,957.46,3482.5,-3727.5,14122.5
-3.42,314.39,957.09,2782.5,-3132.5,12827.5
3.05,317.2,956.85,1715.0,-2292.5,11095.0
9.52,320.37,956.97,1855.0,-1610.0,8960.0
15.62,323.42,956.72,2012.5,-787.5,6842.5
21.35,325.98,955.99,1207.5,-420.0,5057.5
26.84,328.55,955.75,805.0,-210.0,3150.0
32.09,331.11,955.38,1032.5,595.0,420.0
36.48,333.3,954.65,1365.0,245.0,-2380.0
39.89,335.01,953.55,997.5,-52.5,-4322.5
42.7,336.48,952.7,210.0,-52.5,-5670.0
44.9,337.57,951.97,-105.0,-420.0,-7262.5
46.6,338.43,951.48,87.5,-962.5,-8855.0
47.58,338.67,951.23,-542.5,-262.5,-9940.0
47.82,338.55,951.36,-1225.0,787.5,-10552.5
47.58,338.18,951.48,-980.0,1032.5,-10605.0
47.09,337.57,951.36,-647.5,1050.0,-10780.0
46.24,336.96,951.36,-612.5,857.5,-11095.0
45.14,336.23,951.36,-525.0,927.5,-11200.0
44.04,335.5,951.23,-682.5,787.5,-11270.0
42.94,335.01,951.23,-980.0,910.0,-11445.0
41.97,334.52,951.6,-1557.5,1540.0,-11655.0
40.87,334.04,952.09,-1610.0,1995.0,-12022.5
39.77,333.43,952.45,-1120.0,1592.5,-12267.5
38.67,332.82,952.82,-350.0,1382.5,-12355.0
37.82,332.69,952.82,-17.5,1750.0,-12477.5
37.33,332.82,952.09,-717.5,1872.5,-13195.0
36.72,332.82,951.23,-1260.0,1067.5,-14210.0
35.87,332.69,950.87,-1242.5,577.5,-14770.0
34.89,332.33,950.87,-1417.5,1015.0,-15050.0
33.79,332.08,951.11,-1767.5,1400.0,-15347.5
32.82,331.84,951.6,-1627.5,1627.5,-15837.5
31.84,331.72,951.97,-1697.5,2397.5,-16450.0
30.74,331.35,952.09,-1505.0,2467.5,-16870.0
29.4,330.99,952.21,-1312.5,2310.0,-17132.5
28.06,330.62,952.45,-1540.0,2660.0,-17780.0
26.6,330.13,952.58,-1785.0,2520.0,-18480.0
24.89,329.64,952.82,-2047.5,2450.0,-18952.5
22.94,328.79,953.43,-2082.5,3080.0,-19215.0
20.74,327.81,954.04,-2205.0,4165.0,-19145.0
18.91,326.96,954.65,-2730.0,5232.5,-19162.5
17.32,326.35,955.26,-3045.0,5302.5,-19827.5
15.74,325.74,955.87,-1890.0,4060.0,-20930.0
13.79,325.13,956.48,35.0,2905.0,-21770.0
11.59,324.52,956.48,227.5,3027.5,-22155.0
9.27,324.03,955.99,-787.5,3762.5,-22505.0
7.08,323.67,955.63,-1470.0,4375.0,-22960.0
5.0,323.3,955.02,-1680.0,4165.0,-23817.5
2.81,322.93,954.28,-1400.0,3010.0,-24815.0
0.24,322.32,953.8,-1120.0,2485.0,-25637.5
-2.81,321.47,953.31,-2240.0,3255.0,-26110.0
-6.34,320.13,952.94,-3202.5,4112.5,-26162.5
-10.25,318.54,952.82,-2730.0,3640.0,-25830.0
-13.91,316.83,952.82,-2432.5,3570.0,-25200.0
-17.45,315.37,953.06,-3045.0,3797.5,-25690.0
-21.23,313.91,953.67,-2800.0,3220.0,-26267.5
-25.13,312.32,954.53,-1995.0,3027.5,-26215.0
-29.04,310.73,955.26,-1750.0,3640.0,-25935.0
-33.06,309.15,955.5,-2310.0,4200.0,-25847.5
-36.84,307.56,955.87,-2012.5,3990.0,-25620.0
-40.75,305.98,956.11,-1487.5,3832.5,-25462.5
-44.65,304.27,956.24,-1557.5,4112.5,-25550.0
-48.68,302.68,956.24,-1627.5,3885.0,-25970.0
-53.44,300.85,955.99,-945.0,3290.0,-25865.0
-58.44,298.78,955.5,-1050.0,2975.0,-25252.5
-63.68,296.58,954.89,-1960.0,3360.0,-24780.0
-69.05,294.14,954.53,-2677.5,3010.0,-23572.5
-74.42,291.58,955.02,-2607.5,3062.5,-22347.5
-79.67,289.26,955.99,-2135.0,3500.0,-21315.0
-84.79,286.94,956.97,-1627.5,3902.5,-20457.5
-90.04,284.38,957.7,-1365.0,4007.5,-19897.5
-96.01,281.33,958.55,-822.5,3955.0,-18760.0
-102.72,277.92,959.53,297.5,3832.5,-16695.0
-109.8,274.26,959.9,735.0,3150.0,-14577.5
-117.12,270.72,960.26,717.5,3080.0,-12040.0
-124.07,267.42,960.75,1505.0,2870.0,-8890.0
-130.42,264.98,960.87,2222.5,3097.5,-6475.0
-136.27,262.91,960.51,2205.0,2607.5,-4812.5
-142.01,260.84,959.77,1907.5,1767.5,-3290.0
-147.74,258.88,959.16,2537.5,857.5,-1225.0
-153.35,256.93,958.43,3395.0,122.5,1400.0
-158.36,255.22,957.33,2800.0,157.5,4235.0
-162.38,254.0,955.99,1102.5,385.0,6265.0
-165.92,253.27,955.02,1050.0,-402.5,8015.0
-169.09,252.54,954.65,2222.5,-1470.0,9835.0
-171.53,252.3,954.28,2187.5,-1277.5,11847.5
-173.12,252.42,953.92,1155.0,-560.0,13300.0
-173.97,252.66,953.8,1190.0,-1225.0,14122.5
-174.46,253.15,953.67,2222.5,-2502.5,14700.0
-174.7,253.52,953.55,2747.5,-3132.5,15662.5
-174.7,253.88,953.31,1820.0,-2362.5,16887.5
-174.34,254.61,953.43,1592.5,-1942.5,18165.0
-173.24,255.71,953.31,2205.0,-2397.5,18970.0
-171.53,257.05,952.94,2047.5,-3062.5,18760.0
-169.82,258.15,952.82,1837.5,-3360.0,18567.5
-168.85,259.13,952.82,2415.0,-4042.5,19162.5
-167.99,259.74,952.82,2537.5,-4357.5,20265.0
-166.9,260.35,952.82,1977.5,-3797.5,21122.5
-165.92,260.84,953.06,2362.5,-3972.5,22295.0
-164.33,261.69,953.43,3045.0,-3867.5,23642.5
-162.02,263.15,953.31,2467.5,-3412.5,24062.5
-159.33,264.74,953.06,2222.5,-3850.0,23992.5
-156.53,266.45,953.06,2870.0,-4847.5,24307.5
-153.6,268.16,953.06,2957.5,-4060.0,24517.5
-150.55,269.62,953.06,2257.5,-3552.5,24972.5
-147.38,271.08,953.19,2852.5,-4042.5,25392.5
-144.2,272.43,953.06,2870.0,-4042.5,25375.0
-141.15,273.65,953.06,2432.5,-4112.5,25305.0
-138.47,274.62,953.31,2642.5,-4480.0,25690.0
-135.66,275.6,953.67,3325.0,-4340.0,26792.5
-132.49,277.06,953.8,2870.0,-3220.0,27650.0
-128.47,278.89,953.8,2415.0,-3080.0,27965.0
-123.83,281.33,953.92,2485.0,-3412.5,27212.5
-119.07,283.53,954.04,2765.0,-3762.5,26127.5
-114.8,285.6,954.04,3447.5,-4147.5,25847.5
-110.53,287.31,953.8,3447.5,-3587.5,26162.5
-106.26,289.14,953.55,2765.0,-2660.0,26320.0
-101.63,291.34,953.06,2345.0,-2660.0,25865.0
-96.87,293.29,952.7,2590.0,-3342.5,25095.0
-92.23,295.36,952.58,2922.5,-3692.5,24412.5
-87.96,297.19,952.58,2450.0,-3237.5,23870.0
-84.18,298.66,952.94,2345.0,-3290.0,23380.0
-80.89,299.51,953.55,2765.0,-3552.5,23397.5
-77.96,300.0,954.77,3150.0,-3325.0,23677.5
-75.15,300.36,956.24,4200.0,-2485.0,24465.0
-72.47,301.1,956.72,5005.0,-1470.0,25287.5
-69.54,302.32,955.63,4427.5,-1400.0,25515.0
-66.61,303.78,953.55,3552.5,-2677.5,25147.5
-63.68,305.12,951.72,3850.0,-4410.0,25042.5
-60.63,306.59,950.26,4007.5,-4760.0,25322.5
-56.97,308.05,949.28,2730.0,-3727.5,26022.5
-52.7,309.76,949.04,1435.0,-2100.0,26425.0
-47.82,311.83,949.28,1785.0,-1995.0,25742.5
-42.82,313.91,949.77,3290.0,-3027.5,24990.0
-37.21,316.22,949.89,4445.0,-3587.5,24150.0
-30.87,319.15,950.01,3430.0,-2992.5,23205.0
-23.91,322.32,950.14,3587.5,-3027.5,21437.5
-16.59,325.5,950.14,4077.5,-2555.0,19827.5
-9.27,328.91,950.01,3797.5,-2030.0,17797.5
-1.71,332.69,949.53,3605.0,-1540.0,15662.5
5.61,336.48,948.79,2905.0,-840.0,13160.0
12.57,340.14,947.94,1995.0,-175.0,10937.5
19.28,343.67,946.96,1400.0,525.0,7840.0
25.62,346.85,945.99,665.0,210.0,4865.0
31.23,349.65,945.01,17.5,-157.5,1925.0
36.48,352.34,944.28,-822.5,140.0,-822.5
40.87,354.29,943.91,-1627.5,402.5,-3360.0
44.53,356.24,943.67,-1592.5,280.0,-5302.5
48.07,358.07,943.43,-1715.0,910.0,-7035.0
51.48,359.9,942.94,-2432.5,1890.0,-8890.0
54.53,361.61,942.57,-2887.5,1802.5,-11182.5
57.1,363.07,942.57,-2257.5,857.5,-13457.5
59.17,364.17,942.57,-1382.5,735.0,-15207.5
61.0,364.9,942.57,-2047.5,1470.0,-17080.0
62.22,365.27,942.69,-2520.0,1732.5,-18970.0
62.95,365.39,943.06,-2240.0,1907.5,-20212.5
63.32,365.27,943.3,-1925.0,1907.5,-21542.5
63.44,365.27,943.55,-1522.5,1942.5,-22837.5
63.56,365.15,943.43,-2047.5,2100.0,-24412.5
63.2,365.02,943.18,-2747.5,2082.5,-26232.5
62.46,364.54,943.06,-2345.0,1207.5,-28105.0
61.0,363.56,942.82,-2380.0,875.0,-29750.0
58.8,362.22,943.06,-2747.5,1312.5,-30730.0
55.88,360.39,943.3,-3115.0,2257.5,-31027.5
52.7,358.31,943.79,-3395.0,2922.5,-30677.5
49.41,356.61,944.28,-3465.0,3307.5,-30975.0
46.12,355.14,944.65,-3010.0,2747.5,-32025.0
42.7,353.43,944.52,-2800.0,1575.0,-32970.0
38.92,351.6,944.65,-3412.5,1662.5,-33477.5
34.89,349.65,945.38,-3902.5,2730.0,-33652.5
30.5,347.33,946.23,-3850.0,3395.0,-33635.0
25.74,344.77,947.09,-3482.5,3272.5,-33705.0
20.86,341.84,948.06,-2957.5,3167.5,-33477.5
15.86,339.4,948.67,-2275.0,3465.0,-33057.5
10.74,336.96,948.67,-2205.0,3482.5,-32812.5
5.61,334.77,947.94,-2152.5,2397.5,-32865.0
0.61,332.69,947.21,-2292.5,1557.5,-32830.0
-4.64,330.5,946.48,-3097.5,1715.0,-32462.5
-10.0,328.18,946.35,-4235.0,3045.0,-31797.5
-15.49,325.5,946.72,-5600.0,4305.0,-30975.0
-21.11,322.81,947.45,-6020.0,4760.0,-30292.5
-26.6,320.01,948.67,-5757.5,5180.0,-29925.0
-32.09,317.32,950.14,-4970.0,5967.5,-29295.0
-37.82,314.52,951.23,-4567.5,5950.0,-29102.5
-43.92,311.83,952.09,-3412.5,4865.0,-28542.5
-50.26,308.78,952.94,-2520.0,3902.5,-27387.5
-56.61,305.98,953.55,-1732.5,3377.5,-25830.0
-62.34,303.29,953.67,-1715.0,3587.5,-24360.0
-67.59,301.1,953.67,-1627.5,3447.5,-23362.5
-72.59,299.02,953.31,-1767.5,2922.5,-22907.5
-77.23,297.07,953.06,-2187.5,2905.0,-22592.5
-81.74,295.24,953.19,-2205.0,3045.0,-22190.0
-86.5,293.53,953.43,-1750.0,2992.5,-21472.5
-91.13,291.58,953.43,-1242.5,2327.5,-20772.5
-95.89,289.63,953.31,-1155.0,1767.5,-20335.0
-100.89,287.43,953.19,-1347.5,1610.0,-19827.5
-106.38,284.87,953.19,-1540.0,1540.0,-18935.0
-112.61,281.94,953.31,-1610.0,1225.0,-17500.0
-119.19,278.77,953.55,-1050.0,927.5,-15697.5
-126.27,275.23,953.67,-630.0,892.5,-13685.0
-133.96,271.21,953.8,-87.5,490.0,-11165.0
-142.37,266.69,954.04,630.0,52.5,-7490.0
-150.79,262.42,954.28,1312.5,87.5,-2502.5
-158.36,258.64,954.53,210.0,682.5,1767.5
-165.07,255.59,954.77,280.0,822.5,5302.5
-170.56,253.03,955.26,1522.5,-367.5,8382.5
-175.07,251.08,955.38,1855.0,-892.5,10710.0
-178.73,249.61,955.5,1802.5,-910.0,12827.5
-181.54,248.39,955.5,2432.5,-1610.0,14980.0
-183.85,247.42,955.26,3027.5,-2030.0,17027.5
-185.2,247.17,954.77,2870.0,-2170.0,19267.5
-185.68,247.29,954.53,2467.5,-1802.5,21035.0
-185.32,248.03,954.28,2642.5,-1942.5,22102.5
-184.34,249.0,953.8,3605.0,-3272.5,22540.0
-183.12,249.86,953.31,3097.5,-3622.5,22697.5
-182.02,250.47,953.06,2467.5,-3867.5,23327.5
-180.8,250.83,953.55,3255.0,-4620.0,24780.0
-179.1,251.56,954.28,4182.5,-4322.5,26915.0
-176.29,253.15,954.77,3675.0,-2957.5,28157.5
-172.51,255.22,955.26,3447.5,-2485.0,27860.0
-168.73,257.54,955.38,3727.5,-3307.5,26862.5
-165.31,259.49,955.5,4322.5,-3657.5,26635.0
-162.14,261.2,955.5,4865.0,-3150.0,27807.5
-158.6,263.15,955.02,4427.5,-2572.5,28612.5
-154.7,265.47,954.04,3902.5,-2852.5,28490.0
-150.79,267.79,953.31,3780.0,-4077.5,27632.5
-147.01,269.99,953.06,3867.5,-4532.5,27212.5
-143.47,272.18,953.06,3675.0,-3797.5,27580.0
-139.69,274.5,953.06,3167.5,-2782.5,27877.5
-135.66,276.7,952.94,3132.5,-2852.5,27667.5
-131.76,278.89,952.82,3657.5,-3465.0,27212.5
-127.98,280.97,952.82,3972.5,-3710.0,26775.0
-124.56,282.8,952.58,3692.5,-3290.0,26635.0
-121.39,284.14,952.33,3640.0,-3360.0,27107.5
-118.22,285.6,952.09,4007.5,-3622.5,27982.5
-114.68,287.19,951.84,4007.5,-3325.0,28420.0
-110.53,289.38,951.6,3727.5,-3010.0,28647.5
-106.14,291.82,951.36,3255.0,-2555.0,28017.5
-101.99,294.02,950.87,3325.0,-3290.0,27195.0
-98.33,295.85,950.38,3780.0,-4252.5,26652.5
-95.16,297.19,950.01,4060.0,-4497.5,26792.5
-91.99,298.41,949.65,4480.0,-4060.0,28245.0
-87.47,300.36,949.16,4340.0,-2450.0,30065.0
-81.25,303.54,948.43,2677.5,-892.5,29645.0
-74.42,307.44,947.7,1365.0,-997.5,26915.0
-67.95,310.86,947.21,1662.5,-2415.0,24027.5
-62.34,313.54,947.21,2310.0,-3587.5,22172.5
-57.58,315.49,947.33,2135.0,-3097.5,21175.0
-53.68,316.71,947.45,1732.5,-2695.0,20807.5
-50.26,317.69,947.57,2082.5,-2922.5,20982.5
-46.97,318.66,947.94,2800.0,-2887.5,21315.0
-43.43,320.01,947.94,2975.0,-2380.0,21472.5
-39.41,321.84,947.45,2222.5,-1715.0,21105.0
-35.26,323.91,946.84,1645.0,-1540.0,20125.0
-31.11,325.98,946.35,1960.0,-2047.5,19565.0
-26.35,328.3,945.74,2082.5,-1942.5,19110.0
-20.74,330.86,945.13,1015.0,-735.0,18182.5
-14.64,333.91,944.65,87.5,175.0,16362.5
-8.54,337.09,944.04,910.0,-717.5,14402.5
-1.95,340.38,943.3,1645.0,-1907.5,12250.0
4.88,343.8,942.33,630.0,-1592.5,9765.0
11.96,347.21,942.08,-630.0,-682.5,7122.5
18.79,350.75,942.08,-490.0,-472.5,4252.5
25.38,354.04,941.96,-35.0,-945.0,1102.5
31.48,356.97,941.84,-332.5,-997.5,-2117.5
36.84,359.29,942.08,-665.0,-507.5,-4900.0
41.48,361.24,942.33,-717.5,245.0,-7192.5
45.14,362.83,942.57,-770.0,437.5,-9607.5
47.95,364.29,942.33,-507.5,-332.5,-11917.5
50.02,365.15,941.72,-840.0,-367.5,-13755.0
51.48,365.63,941.35,-1890.0,245.0,-15277.5
52.22,365.76,941.47,-2065.0,192.5,-16607.5
52.46,365.51,941.84,-1925.0,192.5,-17745.0
52.46,365.27,942.33,-2065.0,717.5,-18935.0
52.09,364.78,943.06,-2082.5,1435.0,-19862.5
51.24,364.17,943.55,-1960.0,1872.5,-20667.5
49.9,363.44,943.79,-1925.0,2065.0,-21682.5
48.43,362.34,943.67,-1855.0,1907.5,-22347.5
46.6,361.12,943.55,-2292.5,1855.0,-22960.0
44.41,359.78,943.55,-2345.0,2205.0,-23187.5
42.46,358.56,943.55,-2362.5,2502.5,-23467.5
40.26,357.46,943.43,-2730.0,2415.0,-24185.0
38.06,356.48,943.3,-3535.0,2905.0,-25007.5
35.75,355.26,943.55,-3482.5,2415.0,-25760.0
33.31,354.04,944.16,-2922.5,1942.5,-26687.5
30.5,352.58,944.52,-2310.0,2082.5,-26985.0
27.57,351.12,944.65,-2275.0,2485.0,-27002.5
24.89,349.9,944.52,-2397.5,2415.0,-27317.5
22.57,348.92,944.4,-2485.0,2012.5,-27912.5
20.37,348.07,944.28,-3605.0,2922.5,-28840.0
17.81,347.21,944.4,-4410.0,3237.5,-29855.0
15.01,345.87,945.13,-4007.5,2712.5,-30555.0
11.96,344.28,945.99,-3360.0,2922.5,-31202.5
8.66,342.58,946.72,-2905.0,3010.0,-31675.0
5.25,340.62,946.96,-2905.0,3150.0,-32252.5
1.34,338.43,947.45,-3185.0,3360.0,-32375.0
-3.05,336.23,947.94,-3185.0,3955.0,-32182.5
-7.69,334.04,948.18,-2765.0,3797.5,-32077.5
-12.32,331.72,947.94,-2642.5,3307.5,-32025.0
-17.2,329.16,947.94,-3150.0,3657.5,-31920.0
-22.2,326.72,948.06,-3412.5,4217.5,-31377.5
-27.57,324.15,948.31,-3325.0,4077.5,-30992.5
-32.94,321.71,948.67,-3150.0,3745.0,-30765.0
-38.31,319.15,949.04,-3185.0,3692.5,-30345.0
-43.8,316.59,949.65,-3430.0,4252.5,-29872.5
-49.29,313.91,950.38,-2817.5,4305.0,-29015.0
-54.66,311.34,950.87,-2275.0,4322.5,-28192.5
-60.02,308.9,951.11,-2467.5,4357.5,-27842.5
-65.27,306.59,951.11,-2310.0,3937.5,-27405.0
-70.76,304.27,950.87,-1855.0,3535.0,-26652.5
-76.01,301.95,950.62,-2065.0,3762.5,-26040.0
-81.37,299.51,950.01,-2712.5,3885.0,-25480.0
-86.86,296.95,949.65,-3080.0,3535.0,-24885.0
-92.48,294.26,949.4,-3097.5,3220.0,-24097.5
-98.33,291.34,949.77,-2975.0,2957.5,-23135.0
-104.43,288.16,950.5,-2660.0,3045.0,-22190.0
-110.65,284.87,951.6,-2327.5,3955.0,-21315.0
-117.61,281.33,952.33,-1942.5,3727.5,-19827.5
-125.17,277.43,952.82,-892.5,2975.0,-17185.0
-132.98,273.52,953.19,-437.5,2782.5,-14367.5
-141.15,269.38,953.31,-472.5,2642.5,-11620.0
-149.69,265.11,953.43,437.5,1977.5,-8330.0
-158.11,260.96,953.43,1207.5,1260.0,-4147.5
-165.68,257.54,953.06,1085.0,1207.5,-35.0
-171.9,254.74,952.45,140.0,1242.5,2747.5
-177.39,252.54,952.21,-437.5,665.0,4865.0
-182.51,250.59,952.45,857.5,-787.5,7070.0
-187.15,248.88,952.82,2222.5,-1347.5,9887.5
-190.69,247.66,952.82,2012.5,-490.0,12687.5
-193.13,246.68,952.58,1295.0,175.0,14402.5
-194.83,246.2,952.09,2012.5,-1207.5,15925.0
-195.57,246.2,951.6,2730.0,-2345.0,16975.0
-195.81,246.32,950.87,2397.5,-2380.0,17885.0
-195.69,246.81,950.38,1872.5,-2397.5,19232.5
-194.96,247.42,950.26,1767.5,-2170.0,20300.0
-193.86,248.27,950.26,2082.5,-2765.0,21017.5
-192.27,249.12,950.62,2117.5,-3167.5,21315.0
-190.56,250.1,951.11,2537.5,-3132.5,21875.0
-188.86,251.32,951.72,3202.5,-3080.0,22417.5
-187.15,252.54,951.84,3430.0,-2782.5,23030.0
-185.07,253.88,951.84,3237.5,-2747.5,23520.0
-183.12,255.22,951.72,3167.5,-2887.5,23782.5
-181.41,256.44,951.36,3412.5,-3832.5,24115.0
-180.07,257.3,950.99,3587.5,-4550.0,24780.0
-178.97,258.03,950.87,2957.5,-3850.0,26057.5
-178.0,258.52,950.87,3272.5,-3552.5,27545.0
-176.66,259.13,950.62,3990.0,-4077.5,28945.0
-174.83,260.1,950.14,3377.5,-4077.5,30082.5
-172.51,261.32,949.77,2380.0,-3482.5,30852.5
-169.82,262.67,949.65,2870.0,-3832.5,31517.5
-166.9,263.89,949.53,3377.5,-4340.0,31902.5
-164.09,264.74,949.4,3307.5,-4672.5,32550.0
-161.04,265.84,949.4,3342.5,-4532.5,33810.0
-157.87,266.94,949.53,3395.0,-4410.0,34825.0
-154.45,268.16,949.4,3920.0,-5040.0,35420.0
-150.67,269.62,949.53,4515.0,-5320.0,36277.5
-146.4,271.33,949.65,3815.0,-4060.0,37397.5
-141.28,273.65,949.65,3237.5,-3377.5,37520.0
-136.03,276.09,949.28,3815.0,-4707.5,36855.0
-131.03,278.4,948.92,4357.5,-5512.5,36522.5
-125.9,280.48,948.43,3797.5,-4830.0,36680.0
-120.78,282.55,947.94,3220.0,-4357.5,37240.0
-115.66,284.5,947.33,3727.5,-4690.0,38272.5
-109.56,286.94,946.72,4042.5,-4725.0,39007.5
-102.48,290.36,945.5,2957.5,-4777.5,37712.5
-94.79,293.9,944.28,2432.5,-6107.5,35455.0
-87.35,297.56,943.06,2712.5,-6632.5,33845.0
-79.79,300.97,941.84,1837.5,-6230.0,32900.0
-72.22,304.51,940.99,332.5,-5320.0,31727.5
-64.66,307.68,940.74,-350.0,-5040.0,30012.5
-57.83,310.49,940.99,647.5,-6002.5,28542.5
-51.0,312.81,941.47,1715.0,-6352.5,27807.5
-43.68,315.49,941.96,1172.5,-5372.5,27317.5
-35.87,318.42,942.45,-262.5,-4147.5,25777.5
-27.57,321.59,943.55,-525.0,-4077.5,23835.0
-19.28,325.01,945.01,805.0,-4042.5,21507.5
-10.86,328.67,946.48,1802.5,-3657.5,19232.5
-1.95,332.69,947.45,1470.0,-2467.5,16800.0
7.44,336.96,947.94,1050.0,-1190.0,13912.5
17.08,341.36,947.94,892.5,-665.0,10465.0
26.84,345.75,947.45,630.0,-525.0,6335.0
36.36,350.26,946.72,87.5,-350.0,1680.0
44.9,354.17,945.74,-245.0,-717.5,-2765.0
52.22,357.58,944.77,-157.5,-1242.5,-6457.5
58.32,360.51,944.28,-315.0,-857.5,-9642.5
63.56,362.95,943.91,-1172.5,-52.5,-12810.0
67.83,364.78,943.79,-2082.5,420.0,-16047.5
70.88,365.76,943.91,-1697.5,105.0,-18655.0
72.96,366.24,944.04,-1925.0,682.5,-20685.0
74.05,366.24,944.16,-2660.0,1382.5,-22330.0
74.18,365.76,944.52,-2590.0,1225.0,-23730.0
73.69,364.9,945.01,-1680.0,1085.0,-24587.5
72.96,364.17,945.5,-1837.5,1995.0,-25602.5
71.98,363.32,945.5,-2117.5,2345.0,-27160.0
70.27,362.1,945.5,-2187.5,2030.0,-28245.0
67.95,360.63,945.62,-2380.0,2310.0,-29120.0
65.51,359.17,945.5,-2222.5,2450.0,-29592.5
62.95,357.7,945.01,-2187.5,2292.5,-30205.0
60.15,356.0,944.52,-2485.0,1925.0,-31010.0
57.1,354.17,944.28,-3290.0,2292.5,-31517.5
53.68,352.09,944.65,-4095.0,3097.5,-31885.0
50.02,350.02,945.62,-3850.0,3465.0,-31937.5
46.36,348.07,946.48,-3255.0,3500.0,-32217.5
42.46,345.99,947.21,-2485.0,3185.0,-32532.5
38.55,344.04,947.94,-2292.5,3360.0,-32760.0
34.65,342.33,948.43,-2327.5,3832.5,-33127.5
30.62,340.62,948.43,-2292.5,3762.5,-33547.5
26.35,338.67,947.94,-2222.5,3132.5,-33792.5
21.84,336.72,947.57,-2590.0,2835.0,-34002.5
17.08,334.52,947.45,-3412.5,3307.5,-33915.0
12.2,332.08,947.82,-3990.0,3972.5,-33617.5
7.32,329.89,948.31,-3465.0,3972.5,-33180.0
2.56,327.94,948.67,-3132.5,3920.0,-33477.5
-2.44,325.98,948.67,-3045.0,3325.0,-33845.0
-7.81,323.67,948.67,-3045.0,2800.0,-34265.0
-13.79,320.86,948.43,-3272.5,2310.0,-34422.5
-20.01,317.81,948.18,-3745.0,1662.5,-34037.5
-25.86,315.0,948.18,-4305.0,1452.5,-33477.5
-31.48,312.32,948.55,-5057.5,2135.0,-32970.0
-37.09,309.88,949.4,-4725.0,2747.5,-32095.0
-42.94,307.44,950.14,-3325.0,2450.0,-31535.0
-49.04,305.12,950.62,-2537.5,2047.5,-30380.0
-54.9,302.56,950.62,-2870.0,2485.0,-28507.5
-60.27,300.12,950.62,-3902.5,3132.5,-27002.5
-65.27,297.56,951.23,-4130.0,3272.5,-26425.0
-70.39,295.0,952.33,-3482.5,2782.5,-25707.5
-75.64,292.43,953.8,-2310.0,2800.0,-24220.0
-80.4,290.12,955.14,-1960.0,3797.5,-23030.0
-85.16,287.92,956.24,-1365.0,3955.0,-22312.5
-89.79,285.85,956.72,-420.0,3360.0,-21752.5
-94.43,283.89,956.6,-245.0,3202.5,-21087.5
-99.06,282.06,956.11,-245.0,2905.0,-20300.0
-103.46,280.23,955.26,-262.5,2082.5,-19617.5
-107.6,278.65,954.53,-647.5,1977.5,-18515.0
-111.26,277.43,954.04,-1365.0,2922.5,-17937.5
-114.92,276.33,953.31,-2012.5,2765.0,-18042.5
-119.07,274.74,952.94,-1540.0,1120.0,-17972.5
-123.95,272.43,953.06,-700.0,140.0,-17395.0
-129.81,269.62,953.43,-315.0,105.0,-16362.5
-136.4,265.96,953.67,-332.5,-227.5,-14315.0
-143.72,261.81,954.28,-245.0,-647.5,-11690.0
-151.77,257.3,955.26,525.0,-717.5,-8487.5
-159.94,252.91,956.48,1732.5,-647.5,-3675.0
-166.9,249.37,957.21,1487.5,770.0,805.0
-172.51,246.68,957.7,560.0,1942.5,3482.5
-177.63,244.49,957.94,1505.0,787.5,5530.0
-182.27,242.54,957.94,2660.0,-700.0,7525.0
-186.29,240.71,957.7,2607.5,-542.5,10272.5
-189.71,239.24,957.33,2275.0,175.0,13282.5
-192.03,238.39,956.72,2537.5,0.0,15697.5
-193.25,238.27,955.99,2380.0,-805.0,17202.5
-193.49,238.63,955.38,1890.0,-1312.5,18060.0
-193.37,239.36,955.26,1802.5,-1452.5,18585.0
-193.13,239.85,955.38,1942.5,-1785.0,19162.5
-192.76,240.34,955.63,2695.0,-2222.5,20177.5
-192.27,240.95,955.63,3342.5,-2712.5,21577.5
-191.3,241.68,955.5,3220.0,-2590.0,22575.0
-190.08,242.54,955.14,3010.0,-2905.0,23362.5
-188.37,243.76,954.77,3430.0,-3150.0,24517.5
-186.05,245.59,954.41,2677.5,-2450.0,24797.5
-183.37,247.66,953.67,2380.0,-2817.5,24657.5
-180.56,249.73,952.94,3360.0,-4567.5,24535.0
-177.63,251.81,952.09,3447.5,-5267.5,24465.0
-174.7,253.76,951.36,2677.5,-4952.5,24535.0
-172.02,255.22,950.87,2100.0,-4847.5,24780.0
-169.34,256.69,950.62,1890.0,-4970.0,25427.5
-166.53,258.27,950.75,2030.0,-4795.0,25970.0
-163.48,259.86,950.62,1977.5,-4532.5,26197.5
-160.55,261.32,950.62,1942.5,-4917.5,26460.0
-157.38,262.91,950.99,2170.0,-5057.5,26950.0
-153.96,264.37,951.48,2205.0,-4550.0,27335.0
-150.55,265.72,951.97,2187.5,-4270.0,27527.5
-147.38,266.94,952.58,2677.5,-4707.5,27965.0
-144.33,267.79,953.19,3185.0,-4707.5,28455.0
-141.52,268.52,953.8,3465.0,-4707.5,28910.0
-138.96,269.01,954.41,3552.5,-4497.5,29890.0
-136.27,269.62,955.14,3482.5,-3465.0,31535.0
-132.86,270.72,955.87,3535.0,-2467.5,32795.0
-128.95,272.55,956.24,4025.0,-2432.5,33092.5
-124.44,274.5,955.99,4742.5,-2975.0,32882.5
-120.05,276.7,955.38,4760.0,-3255.0,32375.0
-115.78,278.65,954.77,5022.5,-3867.5,32392.5
-111.39,280.6,953.8,5267.5,-4462.5,32847.5
-106.63,282.31,953.06,4305.0,-3885.0,33215.0
-101.38,284.26,952.82,3675.0,-2992.5,33687.5
-96.14,286.58,952.58,4182.5,-2625.0,34072.5
-90.4,289.51,952.21,4515.0,-2712.5,33950.0
-84.06,292.8,951.36,3640.0,-2905.0,31745.0
-77.96,295.61,950.62,3202.5,-4567.5,29505.0
-72.35,297.92,950.5,3745.0,-6037.5,27912.5
-67.22,299.88,951.11,4497.5,-6177.5,27300.0
-62.46,301.58,951.84,5197.5,-5495.0,27142.5
-58.07,303.29,952.09,5285.0,-4707.5,27457.5
-53.44,305.0,951.84,4672.5,-3920.0,27947.5
-48.68,306.95,951.36,3605.0,-2572.5,28140.0
-43.92,308.9,950.87,3640.0,-1977.5,28052.5
-38.8,311.34,949.77,3762.5,-2117.5,27527.5
-34.04,313.54,948.43,3202.5,-2345.0,26670.0
-29.28,315.61,947.33,2660.0,-2607.5,26232.5
-24.4,317.69,946.6,1960.0,-1995.0,25830.0
-19.64,319.52,946.48,1435.0,-1540.0,25235.0
-15.01,321.23,946.84,2117.5,-1907.5,24780.0
-10.25,322.93,947.33,2660.0,-1715.0,24412.5
-5.12,324.76,947.7,2327.5,-1190.0,23590.0
-0.49,326.47,947.7,2502.5,-1540.0,22330.0
3.42,327.81,947.94,3202.5,-2257.5,21367.5
7.08,328.67,947.94,3797.5,-2170.0,21700.0
11.35,330.01,947.7,3132.5,-332.5,21962.5
15.86,331.84,946.96,1802.5,682.5,20825.0
20.01,333.43,946.23,2152.5,-910.0,19477.5
23.42,334.52,945.62,3062.5,-2170.0,18497.5
26.35,335.5,945.01,3150.0,-1890.0,18410.0
29.52,336.35,944.52,2222.5,-962.5,18602.5
33.31,337.45,944.04,1872.5,-822.5,18725.0
38.31,339.53,943.79,2065.0,-227.5,19180.0
44.9,343.06,942.82,980.0,840.0,18602.5
52.7,347.46,941.96,210.0,-105.0,15995.0
61.98,352.58,941.35,735.0,-612.5,11567.5
71.61,357.34,940.99,227.5,-385.0,6142.5
80.76,361.49,940.5,-105.0,-315.0,962.5
88.94,364.78,940.01,-210.0,-752.5,-3745.0
95.4,367.46,939.4,-315.0,-927.5,-7472.5
100.28,369.42,938.67,-857.5,-892.5,-10535.0
103.7,370.64,938.18,-1592.5,-717.5,-12775.0
106.14,371.37,938.3,-2065.0,-17.5,-14525.0
107.6,371.73,938.79,-1925.0,525.0,-16100.0
108.21,371.86,938.91,-1645.0,350.0,-17675.0
108.34,371.37,938.91,-1855.0,280.0,-19197.5
107.73,370.51,938.79,-2362.5,577.5,-20300.0
106.38,369.42,939.03,-2642.5,962.5,-20790.0
104.68,368.07,939.28,-2187.5,1242.5,-20790.0
102.97,366.98,939.16,-2432.5,1575.0,-21087.5
101.38,366.12,938.91,-2590.0,1540.0,-21875.0
99.8,365.15,938.67,-3150.0,1452.5,-22925.0
97.97,364.29,938.91,-3465.0,1557.5,-23852.5
96.01,363.19,939.52,-3360.0,1785.0,-24290.0
93.82,362.22,940.25,-3377.5,2205.0,-24762.5
91.38,361.12,940.99,-2852.5,2362.5,-25392.5
88.94,359.78,941.23,-2310.0,2012.5,-25777.5
86.86,358.8,941.11,-2625.0,2240.0,-26197.5
84.91,357.95,940.86,-3115.0,2485.0,-27072.5
82.72,357.09,940.5,-3535.0,1662.5,-28175.0
80.52,356.24,940.38,-4147.5,1277.5,-29417.5
77.84,355.02,940.86,-4637.5,1645.0,-30187.5
75.15,353.8,941.96,-4357.5,2362.5,-30660.0
72.22,352.58,942.94,-3500.0,2607.5,-30905.0
69.3,351.36,943.3,-3447.5,2835.0,-31657.5
66.37,350.02,943.18,-3920.0,2642.5,-32585.0
62.95,348.68,943.3,-4427.5,2625.0,-33477.5
59.17,346.85,943.43,-3972.5,2432.5,-33425.0
55.39,345.14,943.55,-4637.5,3150.0,-33232.5
51.36,343.55,943.79,-5092.5,3430.0,-33810.0
47.09,341.6,943.79,-4200.0,2275.0,-34335.0
42.58,339.65,943.79,-3990.0,1995.0,-34317.5
38.06,337.57,943.79,-4707.5,2817.5,-34317.5
33.18,335.38,943.91,-5110.0,2870.0,-34230.0
27.94,332.94,944.28,-4497.5,1820.0,-34020.0
22.69,330.5,945.13,-3902.5,1487.5,-33635.0
17.57,328.06,946.11,-4007.5,2012.5,-33355.0
12.69,325.86,946.96,-3972.5,2152.5,-33110.0
7.81,323.54,947.57,-4060.0,2152.5,-33022.5
2.68,321.1,948.55,-4602.5,2642.5,-32865.0
-2.93,318.18,950.14,-4060.0,2957.5,-32112.5
-8.42,315.49,951.84,-2765.0,3430.0,-30625.0
-13.42,313.05,952.82,-2362.5,4427.5,-29837.5
-18.42,310.86,953.06,-2397.5,4252.5,-29732.5
-23.42,308.54,953.06,-2240.0,3360.0,-29330.0
-28.18,306.46,953.06,-2117.5,3272.5,-28822.5
-32.82,304.63,952.82,-2747.5,3307.5,-28980.0
-38.06,302.56,952.7,-3027.5,2975.0,-28980.0
-43.43,300.24,952.94,-2590.0,2817.5,-27860.0
-48.8,298.17,953.19,-2327.5,2835.0,-26600.0
-53.8,296.22,953.06,-2327.5,2835.0,-26005.0
-58.8,294.51,952.94,-1890.0,2222.5,-25847.5
-64.29,292.43,952.82,-1557.5,1435.0,-25287.5
-70.03,290.12,952.82,-2537.5,1750.0,-24272.5
-75.76,287.55,953.55,-3815.0,2922.5,-22942.5
-81.5,284.75,955.02,-3342.5,3395.0,-21875.0
-87.72,281.45,956.72,-1732.5,2887.5,-20702.5
-94.43,277.79,958.19,-455.0,2747.5,-18812.5
-101.5,274.01,959.16,402.5,3360.0,-16450.0
-108.82,270.47,959.16,840.0,3605.0,-13650.0
-116.14,267.18,958.92,1085.0,2310.0,-11217.5
-122.98,264.25,958.19,1435.0,997.5,-9065.0
-129.69,261.45,957.46,1032.5,437.5,-6632.5
-136.4,258.88,956.85,647.5,420.0,-3710.0
-142.37,256.32,956.48,280.0,525.0,-455.0
-147.38,254.49,956.36,-157.5,980.0,2380.0
-151.52,253.27,956.48,157.5,647.5,4112.5
-154.94,252.42,956.48,1312.5,-787.5,5495.0
-157.87,251.69,956.36,1732.5,-1522.5,6982.5
-160.43,251.08,956.11,1172.5,-1032.5,8767.5
-162.5,250.59,956.11,857.5,-945.0,10605.0
-163.6,250.47,956.36,1190.0,-1715.0,11970.0
-163.72,250.95,956.97,1435.0,-1802.5,12530.0
-163.6,251.81,957.21,1557.5,-1575.0,12670.0
-163.36,252.3,957.46,1960.0,-1872.5,13177.5
-163.36,252.66,957.21,2485.0,-2555.0,13930.0
-163.24,252.78,956.85,2537.5,-3115.0,14805.0
-163.24,252.78,956.48,2450.0,-3272.5,16030.0
-163.11,252.91,956.24,2047.5,-2992.5,17202.5
-162.63,253.27,956.24,1680.0,-2782.5,18462.5
-161.65,254.13,956.36,1697.5,-2502.5,19355.0
-160.55,255.1,956.36,1487.5,-2590.0,19442.5
-159.58,255.83,956.6,2205.0,-3622.5,19740.0
-159.33,256.08,956.85,3290.0,-4217.5,20720.0
-159.33,255.83,956.85,3255.0,-3867.5,22382.5
-159.58,255.22,956.72,3045.0,-3745.0,24692.5
-159.09,254.98,956.72,3202.5,-3657.5,26792.5
-157.62,255.59,956.6,2992.5,-3447.5,27930.0
-155.55,256.69,956.72,2940.0,-3465.0,28402.5
-153.35,257.79,956.72,3430.0,-3867.5,28945.0
-151.28,258.76,956.72,3832.5,-4392.5,29785.0
-149.08,259.49,956.72,3692.5,-4410.0,30887.5
-146.77,260.1,956.97,3815.0,-4130.0,32252.5
-143.96,260.84,957.46,5022.5,-4410.0,33547.5
-140.67,261.81,957.46,5547.5,-4532.5,34632.5
-137.01,263.28,957.21,5075.0,-4182.5,35630.0
-132.61,265.11,956.97,4970.0,-3552.5,36067.5
-127.61,267.3,956.48,5530.0,-4077.5,36347.5
-122.24,269.74,955.75,4707.5,-3867.5,35770.0
-116.75,272.3,955.26,3867.5,-3587.5,35192.5
-111.51,274.5,955.14,4480.0,-4060.0,34842.5
-106.63,276.57,955.02,5302.5,-4620.0,34860.0
-101.87,278.4,954.53,5162.5,-4427.5,35227.5
-96.75,280.36,954.53,4567.5,-3657.5,35787.5
-91.26,282.8,954.65,4462.5,-2835.0,36102.5
-85.16,285.6,954.53,4725.0,-2660.0,35857.5
-78.81,288.65,954.28,4777.5,-2800.0,35017.5
-72.47,291.58,954.04,5197.5,-3237.5,33915.0
-66.49,294.51,953.31,5810.0,-3867.5,33232.5
-60.51,297.31,952.09,6072.5,-4340.0,32462.5
-53.92,300.24,950.26,5075.0,-4410.0,32042.5
-46.85,303.54,948.92,3272.5,-3745.0,30905.0
-39.77,306.95,948.18,2747.5,-3745.0,29295.0
-32.7,310.37,947.94,2607.5,-4060.0,27282.5
-26.11,313.17,948.31,2642.5,-4462.5,25515.0
-20.25,315.49,949.16,3587.5,-4322.5,24447.5
-14.64,317.69,950.01,4305.0,-3290.0,23782.5
-9.27,319.64,950.14,4217.5,-2450.0,23117.5
-4.27,321.59,949.89,3972.5,-2187.5,22382.5
0.24,323.42,949.53,4392.5,-2310.0,21420.0
4.27,325.25,948.67,5022.5,-3097.5,20982.5
8.42,327.2,947.33,4252.5,-2870.0,20842.5
13.05,329.28,946.35,2625.0,-2012.5,19862.5
17.32,331.23,945.74,2135.0,-2450.0,18410.0
21.35,332.94,945.5,2765.0,-2992.5,17552.5
25.13,334.4,945.5,3220.0,-2642.5,17447.5
29.28,335.99,945.26,3097.5,-1802.5,16992.5
33.67,337.7,945.01,3097.5,-1767.5,16012.5
38.06,339.4,944.52,3027.5,-2117.5,14787.5
42.09,340.99,944.04,2782.5,-2082.5,13720.0
46.12,342.58,943.55,2467.5,-1785.0,12985.0
50.39,344.41,943.06,1575.0,-1015.0,12180.0
54.78,346.36,942.57,1050.0,-665.0,10850.0
59.29,348.43,942.21,1365.0,-945.0,9117.5
63.68,350.38,941.84,1575.0,-1155.0,7665.0
68.2,352.58,941.23,1102.5,-787.5,6300.0
72.96,354.78,940.62,542.5,-577.5,4375.0
77.35,356.97,940.13,402.5,-980.0,2100.0
81.5,358.92,939.52,140.0,-1085.0,-70.0
84.91,360.27,939.03,-455.0,-875.0,-1855.0
87.72,361.36,938.91,-892.5,-752.5,-3237.5
90.04,362.22,939.16,-927.5,-437.5,-4550.0
91.87,362.71,939.52,-542.5,-140.0,-5617.5
93.21,363.19,939.77,-770.0,70.0,-6562.5
94.43,363.56,940.01,-1067.5,245.0,-7770.0
95.16,363.8,940.38,-595.0,315.0,-8697.5
95.4,363.93,940.38,-192.5,385.0,-9362.5
95.65,363.8,939.77,-682.5,385.0,-10167.5
95.4,363.56,939.16,-1260.0,262.5,-10815.0
95.04,362.95,939.03,-1907.5,577.5,-11235.0
94.43,362.34,939.28,-1610.0,630.0,-11655.0
93.7,361.97,939.4,-1032.5,420.0,-11952.5
92.96,361.61,939.28,-1592.5,665.0,-12600.0
91.87,361.12,939.4,-2030.0,857.5,-13142.5
90.65,360.51,939.64,-1890.0,840.0,-13177.5
89.3,359.9,940.13,-1435.0,1120.0,-13282.5
88.08,359.29,940.25,-1435.0,910.0,-13790.0
86.62,358.56,940.5,-1312.5,647.5,-14227.5
85.03,357.83,940.62,-1435.0,857.5,-14507.5
83.33,357.09,940.74,-1855.0,1067.5,-14490.0
81.62,356.24,941.11,-1802.5,1417.5,-14367.5
79.91,355.51,941.47,-1452.5,1452.5,-14630.0
78.08,354.78,941.6,-1277.5,1207.5,-14927.5
75.88,353.8,941.72,-1452.5,1067.5,-14980.0
73.44,352.82,941.96,-1610.0,1225.0,-14927.5
70.76,351.97,942.08,-1172.5,997.5,-14770.0
68.08,350.87,941.84,-1050.0,665.0,-14542.5
65.39,349.9,941.6,-1697.5,805.0,-14227.5
62.71,349.04,941.6,-1837.5,1067.5,-13650.0
60.51,348.43,941.6,-2152.5,1522.5,-13422.5
58.07,347.7,941.72,-2625.0,1470.0,-13510.0
55.63,346.72,942.45,-1890.0,875.0,-13247.5
53.19,345.87,943.18,-1295.0,1260.0,-12775.0
50.87,345.02,943.79,-1645.0,1925.0,-12477.5
48.56,344.41,944.04,-1697.5,1505.0,-12600.0
46.36,343.67,944.28,-997.5,700.0,-12635.0
44.16,343.06,944.4,-805.0,700.0,-12302.5
42.46,342.58,944.4,-1575.0,1382.5,-12145.0
40.75,342.21,944.52,-2065.0,1802.5,-12302.5
38.92,341.84,945.01,-1365.0,1207.5,-12495.0
37.09,341.36,945.13,-612.5,840.0,-12460.0
35.26,340.99,945.01,-927.5,1085.0,-12320.0
33.67,340.62,944.89,-1627.5,1312.5,-12215.0
32.45,340.38,945.26,-2275.0,1522.5,-12565.0
31.23,340.26,945.74,-2047.5,1242.5,-13195.0
29.65,340.01,946.6,-1015.0,630.0,-13405.0
28.06,339.77,947.33,-350.0,1015.0,-13212.5
26.6,339.53,947.57,-402.5,1680.0,-13300.0
25.01,339.16,947.33,-472.5,1470.0,-13615.0
23.55,338.92,946.84,-1085.0,1067.5,-14227.5
21.84,338.18,946.72,-1627.5,1137.5,-14560.0
19.64,337.57,946.96,-1487.5,1540.0,-14157.5
17.32,336.96,947.21,-962.5,1592.5,-13667.5
15.25,336.48,947.09,-770.0,1032.5,-13580.0
13.66,336.11,946.96,-1452.5,1242.5,-13755.0
12.2,335.99,947.45,-2170.0,2100.0,-14227.5
10.37,335.62,948.18,-1242.5,1715.0,-14682.5
8.17,335.26,948.43,-577.5,1155.0,-14682.5
6.1,334.77,948.18,-1225.0,1557.5,-14647.5
4.27,334.4,947.94,-1750.0,1942.5,-14560.0
2.56,334.04,947.94,-1575.0,1575.0,-14875.0
0.85,333.55,947.94,-1330.0,892.5,-15225.0
-0.73,333.18,948.18,-1400.0,1050.0,-15522.5
-2.68,332.82,948.67,-1330.0,1417.5,-15610.0
-4.64,332.45,949.04,-927.5,1277.5,-15627.5
-6.47,331.96,949.04,-1067.5,1382.5,-15785.0
-8.42,331.6,949.04,-1155.0,1277.5,-16117.5
-10.0,331.11,948.92,-1365.0,1260.0,-16502.5
-11.71,330.62,948.92,-2170.0,1977.5,-17692.5
-14.03,329.89,949.16,-2047.5,1242.5,-18252.5
-17.08,328.55,949.4,-1400.0,822.5,-17430.0
-20.01,327.45,949.65,-1540.0,1417.5,-16485.0
-22.57,326.59,949.89,-1522.5,1785.0,-15785.0
-24.89,325.98,949.77,-1610.0,1680.0,-15995.0
-27.08,325.37,949.77,-1680.0,1190.0,-16432.5
-29.4,324.64,949.89,-1575.0,1330.0,-16432.5
-31.84,323.79,950.01,-1890.0,1837.5,-16310.0
-34.28,322.93,950.01,-1785.0,1680.0,-16082.5
-36.84,322.08,950.14,-1505.0,1277.5,-15785.0
-39.28,321.23,950.38,-997.5,945.0,-15592.5
-41.48,320.49,950.38,-1120.0,1067.5,-15697.5
-43.68,319.88,950.38,-1540.0,1032.5,-15750.0
-45.75,319.15,950.62,-1837.5,1365.0,-15995.0
-48.07,318.18,950.87,-1522.5,1610.0,-15802.5
-50.39,317.2,951.11,-1522.5,1627.5,-15505.0
-52.7,316.47,951.36,-1277.5,1277.5,-15522.5
-54.9,315.61,951.48,-910.0,945.0,-15522.5
-57.1,314.76,951.6,-1260.0,1207.5,-15400.0
-59.05,313.91,951.6,-2152.5,2047.5,-15557.5
-61.49,312.93,952.09,-2170.0,1960.0,-15732.5
-64.29,311.71,952.58,-1067.5,997.5,-15470.0
-66.86,310.61,953.06,-630.0,1312.5,-14787.5
-69.05,309.88,952.94,-1365.0,1995.0,-14490.0
-71.0,309.15,952.82,-1610.0,1732.5,-14840.0
-72.96,308.54,952.7,-1435.0,1260.0,-15155.0
-75.15,307.68,952.7,-1890.0,1470.0,-15225.0
-77.35,306.71,952.94,-1995.0,1592.5,-15032.5
-79.54,305.73,953.31,-1382.5,1277.5,-14717.5
-81.5,304.76,953.55,-1120.0,1312.5,-14630.0
-83.57,303.9,953.67,-1785.0,1907.5,-14945.0
-85.89,302.93,953.92,-1435.0,1382.5,-15050.0
-88.33,301.95,954.28,-735.0,1102.5,-14665.0
-90.52,301.1,954.28,-1522.5,2187.5,-14472.5
-92.6,300.24,954.04,-2205.0,2205.0,-14437.5
-94.67,299.14,954.16,-1662.5,1050.0,-14700.0
-96.75,298.29,954.65,-1102.5,892.5,-14490.0
-98.82,297.31,955.14,-1452.5,1942.5,-14367.5
-100.89,296.34,955.5,-1365.0,2065.0,-14297.5
-102.97,295.48,955.75,-770.0,1697.5,-14192.5
-104.8,294.51,955.75,-892.5,1977.5,-14385.0
-106.99,293.53,955.26,-1382.5,1960.0,-14560.0
-109.43,292.31,954.89,-1085.0,1277.5,-14245.0
-111.87,291.09,954.77,-875.0,1347.5,-13405.0
-113.95,289.87,954.41,-1697.5,1907.5,-13370.0
-116.14,288.9,954.28,-1837.5,1260.0,-13352.5
-118.1,288.04,954.65,-1662.5,1295.0,-13370.0
-119.93,287.07,955.14,-1802.5,1960.0,-13545.0
-122.37,285.85,955.5,-1680.0,2100.0,-13475.0
-125.17,284.26,955.99,-822.5,1697.5,-13142.5
-128.71,282.19,956.24,-140.0,1067.5,-12495.0
-132.37,279.99,956.24,-175.0,997.5,-11445.0
-135.91,278.04,956.24,-402.5,1242.5,-10045.0
-139.2,276.33,956.24,-525.0,1295.0,-9485.0
-142.62,274.5,955.99,-542.5,437.5,-9327.5
-146.77,272.3,956.11,-402.5,-420.0,-9275.0
-152.13,269.25,956.48,175.0,-945.0,-7437.5
-158.11,265.96,957.21,1365.0,-1015.0,-3955.0
-163.36,262.79,957.33,1417.5,-210.0,-560.0
-167.87,260.35,957.09,507.5,420.0,1890.0
-171.9,258.27,956.97,402.5,35.0,3797.5
-175.56,256.44,956.97,1295.0,-875.0,5810.0
-178.61,254.86,957.09,1732.5,-875.0,8102.5
-180.56,254.0,956.97,1137.5,-17.5,9957.5
-181.54,253.64,956.6,1155.0,-280.0,11077.5
-181.78,253.76,956.24,1312.5,-1050.0,11707.5
-181.17,254.37,955.75,717.5,-1067.5,11847.5
-180.44,255.1,955.5,805.0,-1330.0,12145.0
-179.34,255.83,955.5,1225.0,-1750.0,12407.5
-178.12,256.69,955.75,1610.0,-1715.0,12757.5
-176.78,257.42,955.87,1732.5,-1627.5,13055.0
-175.31,258.4,955.99,1697.5,-1732.5,13142.5
-173.73,259.37,955.87,1837.5,-2187.5,13002.5
-172.14,260.35,955.63,1575.0,-2590.0,12740.0
-170.68,261.2,955.5,1400.0,-2555.0,12757.5
-169.58,261.93,955.5,1820.0,-2520.0,13317.5
-168.36,262.67,955.14,1662.5,-2485.0,13737.5
-167.14,263.52,954.89,1347.5,-2450.0,13895.0
-165.8,264.25,954.65,1610.0,-2712.5,14280.0
-164.46,265.23,954.53,1627.5,-2730.0,14577.5
-162.99,265.96,954.53,1050.0,-2205.0,14735.0
-161.77,266.69,954.77,1190.0,-2100.0,15155.0
-160.19,267.42,955.14,1680.0,-2520.0,15645.0
-158.36,268.4,955.26,1610.0,-2275.0,15697.5
-156.4,269.38,955.5,1802.5,-2432.5,15890.0
-154.33,270.35,955.38,2065.0,-2380.0,16117.5
-152.01,271.57,955.14,1715.0,-2117.5,16100.0
-149.69,272.67,954.77,1662.5,-2415.0,15960.0
-147.25,274.01,954.77,1715.0,-2432.5,15767.5
-144.81,275.23,954.53,1715.0,-2537.5,15540.0
-142.5,276.33,954.41,1452.5,-2572.5,15575.0
-140.06,277.43,954.53,1680.0,-2450.0,15820.0
-137.49,278.77,954.89,1855.0,-2170.0,15767.5
-135.18,279.99,955.02,2152.5,-2502.5,15417.5
-133.1,281.21,955.26,2432.5,-3115.0,15400.0
-131.27,282.19,955.38,2065.0,-2082.5,14857.5
-129.69,282.67,955.26,2152.5,-2642.5,15470.0
-127.86,283.16,955.02,2327.5,-2345.0,16205.0
-125.66,284.26,954.77,1890.0,-1645.0,16152.5
-123.71,285.24,954.28,1855.0,-2292.5,15855.0
-122.0,285.97,954.04,2135.0,-2660.0,16012.5
-120.41,286.7,953.8,1942.5,-2467.5,16432.5
-118.71,287.43,953.8,1942.5,-2397.5,17115.0
-116.39,288.16,953.8,1767.5,-2275.0,17255.0
-114.07,289.14,954.04,1890.0,-2012.5,16870.0
-112.0,290.12,954.16,2502.5,-2275.0,17062.5
-109.8,291.09,954.04,2642.5,-2117.5,17675.0
-107.12,292.43,953.92,1890.0,-1330.0,17605.0
-104.19,294.02,953.67,1977.5,-1837.5,17150.0
-101.38,295.61,953.43,2572.5,-2660.0,16572.5
-98.82,296.95,953.31,2327.5,-2520.0,16380.0
-96.26,298.17,953.31,1995.0,-2047.5,16747.5
-93.57,299.39,953.31,2152.5,-1907.5,16362.5
-91.01,300.61,953.19,2590.0,-2467.5,16100.0
-88.21,301.83,953.06,2520.0,-2082.5,16135.0
-85.28,303.29,952.58,1907.5,-1120.0,15837.5
-82.35,304.76,952.09,1575.0,-1522.5,15190.0
-79.42,306.1,951.48,1487.5,-2450.0,14402.5
-76.86,306.95,951.48,1557.5,-2572.5,13982.5
-74.66,307.68,951.84,2187.5,-2222.5,14490.0
-71.98,308.66,952.09,2485.0,-1365.0,15102.5
-68.93,310.12,952.09,1925.0,-787.5,14525.0
-65.76,311.83,951.84,1750.0,-1295.0,13457.5
-62.95,313.42,951.6,2117.5,-1995.0,12372.5
-60.39,314.64,951.23,2030.0,-2065.0,11812.5
-58.32,315.61,950.99,1487.5,-1505.0,11637.5
-56.73,316.35,950.87,1942.5,-1697.5,11655.0
-55.39,316.71,950.38,2275.0,-2327.5,11637.5
-54.29,316.96,949.89,1557.5,-2082.5,11830.0
-53.44,316.96,949.89,1295.0,-1785.0,12407.5
-52.7,317.08,950.01,1872.5,-1942.5,12897.5
-51.73,317.32,949.89,2152.5,-2222.5,13300.0
-50.26,317.57,950.14,1487.5,-1365.0,13632.5
-48.8,317.93,950.5,1382.5,-875.0,13807.5
-47.34,318.42,950.87,2257.5,-1540.0,13965.0
-45.63,318.91,950.87,2730.0,-1820.0,14157.5
-43.92,319.4,950.75,2240.0,-1225.0,14122.5
-42.46,319.76,950.75,2257.5,-1102.5,14157.5
-41.11,320.13,950.62,2520.0,-1382.5,14420.0
-39.77,320.49,950.5,2310.0,-1085.0,14945.0
-38.19,320.98,950.62,2205.0,-437.5,15172.5
-36.48,321.71,950.87,2887.5,-805.0,15505.0
-34.28,322.81,950.5,3167.5,-1102.5,15557.5
-31.72,324.03,950.14,2310.0,-962.5,14927.5
-29.16,324.76,950.01,2310.0,-1312.5,14332.5
-27.08,325.5,950.26,2817.5,-1417.5,14210.0
-25.13,325.98,950.38,3360.0,-1207.5,14507.5
-23.42,326.47,949.89,3552.5,-980.0,15155.0
-21.11,327.33,948.92,3377.5,-962.5,15312.5
-18.79,328.18,947.94,2747.5,-1155.0,14787.5
-16.84,328.91,947.09,2467.5,-1627.5,14332.5
-15.13,329.52,946.6,2397.5,-1715.0,14525.0
-13.66,330.01,946.48,1942.5,-1242.5,14997.5
-12.44,330.38,946.35,1960.0,-1400.0,15400.0
-10.74,330.86,946.23,2572.5,-1785.0,15715.0
-8.91,331.35,946.23,2572.5,-1592.5,15610.0
-7.2,332.08,946.11,2695.0,-1662.5,15715.0
-5.25,332.82,945.74,2800.0,-1575.0,15767.5
-3.42,333.43,945.13,2712.5,-1767.5,15662.5
-1.59,333.91,944.28,2782.5,-2520.0,15785.0
0.24,334.04,943.67,2100.0,-2520.0,15925.0
1.71,334.28,943.79,1872.5,-2100.0,16380.0
3.42,334.52,944.16,2362.5,-1750.0,17115.0
5.61,335.01,944.28,2782.5,-1680.0,17412.5
8.05,335.74,944.4,3115.0,-1925.0,17482.5
10.74,336.84,944.28,3307.5,-1820.0,17325.0
13.42,337.94,943.79,3290.0,-1837.5,16940.0
16.59,339.16,942.94,2922.5,-1925.0,16905.0
20.25,340.38,942.08,2030.0,-1400.0,16485.0
24.16,341.97,941.6,2012.5,-1277.5,15785.0
28.43,343.8,941.11,2572.5,-1680.0,14962.5
32.94,345.87,939.89,2660.0,-1925.0,13720.0
37.82,348.07,938.55,1960.0,-2205.0,12547.5
43.19,350.26,937.69,157.5,-1102.5,11480.0
49.04,352.82,937.69,-1522.5,1295.0,10185.0
54.78,355.75,938.06,-1592.5,1925.0,8907.5
61.0,358.92,937.94,-717.5,787.5,5635.0
67.22,361.85,937.94,-315.0,-385.0,1452.5
72.47,364.29,938.06,262.5,-1102.5,-1610.0
76.86,366.12,937.94,-315.0,-647.5,-3937.5
80.28,367.46,937.69,-875.0,-297.5,-5845.0
83.2,368.56,937.2,-1120.0,-560.0,-7805.0
85.16,369.17,936.84,-1330.0,-822.5,-9432.5
86.62,369.42,936.72,-1662.5,-367.5,-10605.0
87.6,369.42,936.72,-2415.0,525.0,-11585.0
87.72,369.05,936.96,-2362.5,507.5,-12337.5
87.72,368.68,937.45,-1715.0,262.5,-12862.5
87.47,368.07,937.94,-1627.5,595.0,-13562.5
87.11,367.46,938.67,-1662.5,1102.5,-14315.0
86.38,366.73,939.16,-1330.0,1120.0,-14717.5
85.52,366.0,939.4,-1610.0,1102.5,-15260.0
84.55,365.51,939.52,-1540.0,1155.0,-16047.5
83.45,365.02,939.4,-1452.5,1102.5,-16660.0
82.23,364.29,939.16,-1750.0,1435.0,-17080.0
81.13,363.68,938.91,-2170.0,1592.5,-17500.0
80.03,363.32,938.67,-1995.0,1522.5,-18025.0
79.3,363.32,938.42,-2502.5,1697.5,-19005.0
78.32,363.07,938.18,-3097.5,1382.5,-20300.0
77.1,362.58,938.42,-3202.5,875.0,-21157.5
75.88,361.85,939.28,-2817.5,1172.5,-21700.0
74.42,361.12,940.13,-2782.5,1645.0,-22365.0
72.83,360.27,940.74,-2537.5,1400.0,-23170.0
71.0,359.41,941.6,-2100.0,1382.5,-23905.0
69.05,358.56,942.08,-1995.0,1960.0,-24482.5
66.98,357.7,942.33,-2117.5,2362.5,-24972.5
64.9,356.97,941.96,-2310.0,2047.5,-25812.5
62.59,356.12,941.6,-2940.0,2152.5,-26932.5
59.78,355.02,941.35,-3377.5,1837.5,-27160.0
57.1,354.04,941.47,-3605.0,2117.5,-27317.5
54.05,352.82,941.72,-3710.0,2310.0,-28035.0
50.87,351.6,942.08,-3132.5,1662.5,-28612.5
47.34,350.14,942.33,-2992.5,1522.5,-28630.0
43.68,348.68,942.57,-3360.0,2170.0,-28507.5
40.02,347.21,943.06,-3360.0,2747.5,-28437.5
36.36,345.75,943.43,-3360.0,2712.5,-28647.5
32.33,343.92,943.79,-3115.0,2047.5,-28945.0
28.06,342.09,944.28,-3027.5,1995.0,-28910.0
23.42,340.01,945.13,-3220.0,2782.5,-28385.0
19.03,338.06,946.11,-3080.0,3237.5,-27737.5
14.4,336.11,947.21,-2625.0,3342.5,-27405.0
10.13,334.28,948.18,-1925.0,3342.5,-27125.0
5.86,332.69,948.92,-1837.5,3990.0,-26880.0
1.46,331.11,948.92,-1925.0,4165.0,-26775.0
-3.17,329.4,948.55,-1662.5,3202.5,-26670.0
-7.93,327.57,948.18,-1610.0,2765.0,-26215.0
-12.69,325.74,947.7,-2100.0,3045.0,-25497.5
-17.57,324.03,947.09,-2607.5,3062.5,-24955.0
-22.33,322.2,946.84,-2817.5,2887.5,-24377.5
-26.96,320.49,946.96,-2432.5,2520.0,-23765.0
-31.48,318.91,946.96,-2625.0,2555.0,-23362.5
-35.87,317.32,947.45,-3150.0,2765.0,-22977.5
-40.26,315.74,948.18,-2852.5,2940.0,-22540.0
-44.77,314.15,949.04,-2117.5,2957.5,-21752.5
-49.04,312.69,949.65,-1522.5,2835.0,-20982.5
-52.7,311.34,949.89,-1540.0,2887.5,-20720.0
-56.24,310.37,949.89,-2152.5,2940.0,-20685.0
-59.78,309.39,949.89,-1697.5,2590.0,-20562.5
-62.95,308.66,949.53,-1120.0,2187.5,-20440.0
-65.88,307.93,948.79,-2345.0,2450.0,-20842.5
-69.05,306.83,948.43,-3045.0,2327.5,-21157.5
-72.59,305.37,948.67,-2537.5,1750.0,-20702.5
-75.88,304.02,949.04,-2152.5,1925.0,-20090.0
-79.18,302.8,949.4,-2590.0,2327.5,-19932.5
-82.47,301.46,949.77,-2555.0,2100.0,-19670.0
-85.64,300.36,950.38,-2152.5,1995.0,-19582.5
-88.82,299.14,950.75,-2275.0,2170.0,-19757.5
-92.11,297.68,951.23,-2082.5,1680.0,-19670.0
-95.16,296.22,951.6,-1260.0,1470.0,-19617.5
-98.58,294.63,951.84,-1470.0,1855.0,-19652.5
-102.6,292.68,952.21,-1382.5,1977.5,-18515.0
-106.51,290.85,952.33,-962.5,2135.0,-17150.0
-109.92,289.38,951.97,-1295.0,2432.5,-16450.0
-113.22,288.04,951.36,-2012.5,2170.0,-16590.0
-116.75,286.46,951.11,-1627.5,1277.5,-16327.5
-120.78,284.87,951.11,-1155.0,1050.0,-15697.5
-124.56,283.16,950.87,-1400.0,1050.0,-14367.5
-127.86,281.45,950.62,-2100.0,1120.0,-13632.5
-131.52,279.5,951.23,-2170.0,665.0,-13527.5
-135.91,277.06,952.45,-1347.5,105.0,-12722.5
-140.67,274.26,953.92,-647.5,490.0,-10990.0
-145.79,271.08,955.26,-175.0,1365.0,-8645.0
-151.04,268.16,956.48,577.5,1732.5,-6422.5
-156.28,265.23,957.21,1505.0,1225.0,-4602.5
-161.77,262.42,957.09,2362.5,402.5,-2310.0
-166.9,259.86,956.48,1837.5,245.0,35.0
-171.53,257.42,955.75,1225.0,297.5,2555.0
-175.44,255.83,955.02,962.5,560.0,5250.0
-178.12,254.86,954.28,402.5,717.5,6615.0
-180.32,254.13,953.8,297.5,-420.0,7630.0
-181.78,253.52,954.04,455.0,-910.0,8575.0
-183.12,253.03,954.77,665.0,-332.5,9677.5
-184.34,252.54,955.38,1872.5,-717.5,10867.5
-184.95,252.54,955.38,2345.0,-1277.5,12110.0
-184.83,253.03,955.26,1242.5,-455.0,13020.0
-184.1,253.88,955.26,1050.0,-280.0,13212.5
-183.24,255.1,955.02,2152.5,-1715.0,13072.5
-182.15,256.32,954.04,2782.5,-2957.5,12757.5
-181.29,257.42,952.33,2275.0,-3902.5,12810.0
-180.32,258.4,950.38,840.0,-4392.5,13282.5
-178.97,259.25,949.04,-455.0,-4270.0,14122.5
-176.78,260.59,948.67,-1645.0,-2922.5,14647.5
-173.97,262.18,949.28,-1872.5,-2152.5,14245.0
-171.53,263.64,950.26,-437.5,-3325.0,13160.0
-169.58,264.62,951.36,1295.0,-4742.5,12600.0
-168.36,264.86,952.33,1172.5,-3902.5,13335.0
-167.14,264.86,953.55,577.5,-1942.5,14787.5
-165.68,265.23,954.77,945.0,-1155.0,15715.0
-163.72,266.08,955.5,1207.5,-1137.5,15662.5
-161.53,267.18,955.99,1190.0,-1137.5,15277.5
-159.82,268.16,956.24,1680.0,-1382.5,15242.5
-157.99,269.25,955.99,2187.5,-1662.5,15697.5
-155.92,270.47,955.38,1435.0,-1085.0,15732.5
-153.84,271.69,954.77,157.5,-577.5,15435.0
-152.38,272.79,954.41,297.5,-857.5,15347.5
-151.16,273.89,953.67,560.0,-1120.0,15995.0
-149.82,275.23,952.45,70.0,-1015.0,16590.0
-148.11,276.7,951.23,-962.5,-525.0,16677.5
-146.28,278.04,950.5,-1382.5,-542.5,16590.0
-144.33,279.38,949.89,-735.0,-1802.5,16082.5
-142.25,280.36,949.16,-1610.0,-2170.0,15662.5
-140.3,280.84,949.53,-3797.5,-980.0,15417.5
-138.84,281.09,951.48,-4042.5,-227.5,15365.0
-137.86,280.72,954.41,-1995.0,-595.0,15715.0
-137.13,279.87,957.21,577.5,-1260.0,16380.0
-136.52,278.89,959.16,2555.0,-1277.5,17762.5
-135.18,278.65,960.14,2800.0,-70.0,19162.5
-132.98,279.26,960.14,1190.0,1540.0,19302.5
-130.42,280.48,959.65,262.5,1575.0,18322.5
-127.98,281.82,959.41,735.0,332.5,16992.5
-126.27,283.04,959.16,1750.0,-577.5,16572.5
-124.68,284.14,959.04,2520.0,-227.5,17447.5
-122.37,285.72,958.43,1592.5,1592.5,18060.0
-119.32,287.55,957.46,87.5,2310.0,17237.5
-116.14,289.14,956.72,140.0,892.5,16065.0
-112.97,290.85,956.72,525.0,-70.0,14700.0
-110.29,292.19,957.21,577.5,192.5,13790.0
-108.09,293.29,958.19,805.0,805.0,13562.5
-106.02,294.02,959.04,1277.5,1715.0,13527.5
-103.82,294.63,959.9,1732.5,2065.0,13300.0
-101.75,295.0,960.38,2292.5,2450.0,12845.0
-100.41,295.24,960.14,2957.5,2240.0,12652.5
-99.31,295.48,959.16,2520.0,2520.0,13440.0
-97.97,296.09,957.94,910.0,3430.0,13702.5
-96.38,296.83,956.97,577.5,2642.5,13177.5
-94.92,297.44,956.36,1802.5,927.5,12705.0
-93.09,298.05,955.99,2082.5,945.0,12810.0
-91.13,298.66,955.63,1505.0,1977.5,12775.0
-89.06,299.51,955.14,682.5,2345.0,12337.5
-87.23,300.36,954.89,892.5,1575.0,11532.5
-86.13,301.22,954.65,2205.0,52.5,10780.0
-85.52,301.58,954.04,2940.0,-892.5,10902.5
-85.16,301.83,953.55,1872.5,-52.5,12022.5
-84.3,302.19,953.43,630.0,1242.5,12565.0
-83.08,302.8,953.43,1242.5,315.0,12110.0
-81.74,303.41,953.31,2467.5,-1487.5,11760.0
-80.52,304.63,953.55,1820.0,-595.0,11585.0
-79.06,306.46,954.41,437.5,1627.5,10885.0
-77.71,308.17,955.75,192.5,2712.5,9677.5
-77.1,309.39,957.09,1767.5,2065.0,8540.0
-76.86,309.76,958.19,3500.0,1610.0,8505.0
-76.98,309.76,958.68,3255.0,2800.0,9275.0
-77.35,309.64,958.92,2100.0,4200.0,10115.0
-77.35,309.15,959.16,2380.0,4182.5,10570.0
-77.35,308.66,958.92,4182.5,3115.0,11112.5
-77.1,308.17,957.7,4567.5,3045.0,12022.5
-76.25,308.42,955.99,3202.5,3972.5,12495.0
-75.27,309.39,954.04,2380.0,3377.5,12372.5
-74.18,310.61,951.97,2397.5,1977.5,11970.0
-72.96,311.95,950.14,2257.5,1225.0,11725.0
-71.61,313.54,948.67,910.0,1767.5,11637.5
-70.03,315.37,947.94,-420.0,2432.5,11025.0
-68.32,317.2,947.7,0.0,2047.5,9922.5
-66.73,318.54,947.7,927.5,1085.0,8767.5
-65.64,319.64,947.82,1365.0,280.0,8102.5
-65.03,320.62,948.06,612.5,752.5,7647.5
-64.9,321.23,948.67,-17.5,1592.5,7525.0
-64.9,321.47,949.4,647.5,1645.0,7857.5
-64.78,321.59,949.89,1575.0,1120.0,8207.5
-64.17,321.59,950.01,1295.0,1820.0,8487.5
-63.44,321.59,950.38,437.5,3255.0,8540.0
-62.59,321.47,950.38,1767.5,2835.0,8855.0
-61.24,321.71,949.4,3080.0,1557.5,9257.5
-58.93,322.69,947.45,2502.5,1330.0,9415.0
-55.39,324.4,945.38,770.0,1645.0,8925.0
-50.75,326.35,943.91,-577.5,1400.0,8295.0
-45.02,329.03,943.3,17.5,700.0,6265.0
-38.8,332.57,942.57,1155.0,-752.5,3010.0
-32.7,336.35,941.47,630.0,-2100.0,-1137.5
-27.69,339.53,940.99,-927.5,-2397.5,-5302.5
-24.4,341.72,941.84,-525.0,-2555.0,-7927.5
-22.45,342.94,942.69,787.5,-2082.5,-9030.0
-21.47,343.8,942.57,612.5,-1540.0,-10115.0
-21.23,344.28,941.72,-1032.5,-1627.5,-11602.5
-22.45,344.16,941.35,-2555.0,-1662.5,-13055.0
-24.89,343.06,941.72,-2222.5,-2012.5,-12967.5
-27.82,341.11,942.57,-1155.0,-1715.0,-11497.5
-30.38,339.53,943.43,-1190.0,-437.5,-10325.0
-32.21,338.55,943.91,-1330.0,-17.5,-9992.5
-33.55,338.06,944.28,-2117.5,175.0,-10710.0
-34.89,337.7,945.01,-2397.5,122.5,-11795.0
-36.97,336.96,946.11,-595.0,-945.0,-11970.0
-39.04,336.23,946.96,525.0,-1085.0,-11305.0
-40.75,335.62,947.21,-472.5,70.0,-11112.5
-41.97,335.01,947.82,-927.5,175.0,-11655.0
-43.19,334.4,948.67,-52.5,-560.0,-12145.0
-44.41,333.79,949.16,892.5,-630.0,-12180.0
-45.63,333.3,948.92,1190.0,-507.5,-12075.0
-46.48,333.06,948.18,385.0,-175.0,-11970.0
-47.09,333.43,947.45,-1172.5,560.0,-12757.5
-47.58,333.55,947.21,-1627.5,280.0,-14175.0
-48.68,333.3,947.57,-402.5,-892.5,-14770.0
-50.02,333.06,947.7,367.5,-945.0,-14787.5
-51.48,332.69,947.33,-315.0,-350.0,-14997.5
-52.95,332.08,946.96,-560.0,-717.5,-15295.0
-54.41,331.35,946.84,-665.0,-1015.0,-15750.0
-56.36,330.13,946.84,-1557.5,-367.5,-16065.0
-58.8,328.91,947.21,-1487.5,-525.0,-15627.5
-61.24,327.69,947.94,-1050.0,-297.5,-15242.5
-63.44,326.59,948.55,-210.0,-332.5,-15085.0
-65.64,325.62,948.67,280.0,-682.5,-14787.5
-67.83,325.01,948.43,297.5,-857.5,-14822.5
-69.54,324.64,947.94,-245.0,-735.0,-14927.5
-71.0,324.52,947.45,-1330.0,-577.5,-15627.5
-72.35,324.03,947.21,-1645.0,-1015.0,-16502.5
-74.18,323.18,947.33,-1347.5,-1277.5,-16677.5
-76.37,322.08,947.7,-560.0,-1207.5,-16047.5
-78.57,320.86,947.33,-735.0,-752.5,-15260.0
-80.03,319.88,946.72,-2152.5,-577.5,-15120.0
-81.13,319.15,946.72,-2940.0,-875.0,-15645.0
-82.23,318.42,947.57,-2170.0,-1085.0,-16415.0
-83.69,317.44,948.55,-770.0,-1260.0,-16415.0
-85.16,316.59,949.16,-595.0,-665.0,-15890.0
-86.38,315.98,949.4,-1942.5,297.5,-16047.5
-87.35,315.74,949.4,-1960.0,-490.0,-16677.5
-88.45,315.25,949.53,-1155.0,-1557.5,-17237.5
-89.55,314.64,949.65,-1680.0,-1190.0,-17832.5
-90.89,313.54,950.14,-2555.0,-227.5,-18392.5
-92.96,312.2,951.11,-1645.0,-157.5,-18235.0
-95.16,310.73,951.6,-560.0,-157.5,-17937.5
-97.36,309.51,951.36,-1190.0,140.0,-17710.0
-99.43,308.54,951.11,-1540.0,-140.0,-17920.0
-101.5,307.2,950.62,-1172.5,-1190.0,-18165.0
-103.94,305.73,950.14,-840.0,-1785.0,-17710.0
-106.38,304.27,949.4,-1207.5,-1890.0,-17185.0
-108.58,302.68,948.79,-1855.0,-2065.0,-16607.5
-110.53,301.34,948.67,-2537.5,-1820.0,-16485.0
-112.48,300.0,949.4,-2275.0,-1802.5,-16590.0
-114.8,298.66,949.89,-1207.5,-2327.5,-16240.0
-117.12,297.31,950.01,-665.0,-2800.0,-15680.0
-119.32,295.85,949.89,-1190.0,-3097.5,-15487.5
-121.27,294.14,950.01,-1347.5,-3062.5,-14595.0
-122.73,292.56,950.75,-1942.5,-1435.0,-13632.5
-124.2,291.58,951.11,-1732.5,-1207.5,-13720.0
-125.66,290.48,950.87,-945.0,-3412.5,-13982.5
-127.12,289.38,950.87,-1242.5,-4182.5,-14175.0
-128.34,288.29,951.72,-1522.5,-3010.0,-13790.0
-129.2,287.55,952.7,-1330.0,-1820.0,-13580.0
-129.56,287.43,952.94,-1347.5,-1627.5,-14262.5
-129.93,287.19,952.82,-1540.0,-2205.0,-15242.5
-130.42,286.82,952.94,-2362.5,-1820.0,-15627.5
-131.03,286.09,953.67,-3290.0,-665.0,-16030.0
-131.88,284.87,954.77,-2695.0,-682.5,-16170.0
-132.86,283.53,955.99,-1820.0,-455.0,-16082.5
-133.71,282.31,956.85,-1435.0,-17.5,-16170.0
-134.93,280.97,957.21,-1452.5,17.5,-16082.5
-135.91,279.75,957.7,-1627.5,70.0,-15995.0
-137.13,278.4,958.19,-1190.0,157.5,-16205.0
-138.59,276.94,958.31,-402.5,-507.5,-16152.5
-140.18,275.35,958.07,-490.0,-612.5,-15890.0
-141.76,273.65,958.19,-1785.0,385.0,-15540.0
-143.59,271.82,958.8,-1715.0,665.0,-15295.0
-145.67,269.86,959.29,-787.5,122.5,-15190.0
-148.23,267.91,959.65,-105.0,-210.0,-14332.5
-150.91,266.08,959.77,-262.5,315.0,-13632.5
-153.96,263.89,959.53,-962.5,262.5,-13317.5
-157.87,260.96,959.65,-997.5,-472.5,-12617.5
-162.75,257.42,960.38,-525.0,-455.0,-11270.0
-168.6,253.39,960.99,227.5,-507.5,-9362.5
-175.31,249.12,961.12,822.5,-1505.0,-5565.0
-181.54,245.22,961.36,350.0,-490.0,-1557.5
-187.03,241.93,961.6,-280.0,577.5,1225.0
-192.15,239.12,961.6,647.5,-455.0,3377.5
-197.15,236.19,961.48,1277.5,-1487.5,5792.5
-201.79,233.63,961.36,1155.0,-1470.0,8890.0
-205.33,231.68,961.36,1365.0,-857.5,12127.5
-207.4,230.58,961.12,1330.0,-647.5,14245.0
-208.13,230.21,960.38,1522.5,-1575.0,15382.5
-208.25,230.21,959.77,1417.5,-2082.5,16047.5
-207.89,230.34,959.41,1067.5,-2205.0,17150.0
-206.91,230.46,959.41,980.0,-2240.0,18357.5
-205.45,230.95,959.9,787.5,-2065.0,18777.5
-204.11,231.31,960.63,1662.5,-2607.5,19232.5
-202.76,231.43,961.36,2800.0,-3202.5,20615.0
-200.81,232.04,962.09,2660.0,-2082.5,21735.0
-198.62,232.78,962.58,2992.5,-1942.5,22137.5
-196.42,233.87,962.7,4550.0,-3465.0,22522.5
-194.47,235.09,962.58,4882.5,-4025.0,22925.0
-192.27,236.31,962.09,4340.0,-3377.5,24307.5
-189.22,238.02,961.6,3430.0,-2030.0,25287.5
-185.44,240.1,960.87,2975.0,-2047.5,24920.0
-181.54,242.29,960.14,3272.5,-3272.5,24342.5
-177.63,244.61,959.53,2432.5,-3045.0,23397.5
-174.34,246.81,959.41,2240.0,-3185.0,23065.0
-171.53,248.88,959.77,2537.5,-2887.5,22820.0
-169.21,250.59,959.9,2310.0,-2537.5,22557.5
-167.14,251.81,960.02,2502.5,-2852.5,23292.5
-164.58,253.27,960.38,2152.5,-1522.5,24185.0
-161.41,255.47,960.14,1207.5,-87.5,23870.0
-158.23,257.91,959.65,525.0,-892.5,22680.0
-155.55,259.98,959.9,892.5,-1785.0,21735.0
-153.48,261.08,960.99,1295.0,-700.0,22015.0
-151.65,261.81,962.09,1732.5,665.0,23152.5
-149.69,262.91,962.46,1802.5,1452.5,24027.5
-147.25,264.25,962.34,1400.0,1540.0,24097.5
-144.2,265.96,962.34,1032.5,1680.0,23957.5
-140.42,267.91,962.7,892.5,2362.5,23572.5
-136.4,270.11,963.07,1785.0,2432.5,23345.0
-132.13,272.3,963.07,2432.5,2082.5,22942.5
-127.86,274.87,962.46,2257.5,2152.5,21892.5
-123.71,277.55,961.85,1277.5,2625.0,20492.5
-120.29,280.23,961.6,805.0,2887.5,19722.5
-116.63,282.8,961.97,1750.0,2782.5,19127.5
-112.97,284.99,961.97,2590.0,2782.5,18095.0
-109.56,286.58,961.24,2345.0,2292.5,16905.0
-106.63,287.43,960.38,2747.5,840.0,16397.5
-104.43,287.92,960.02,2975.0,752.5,16660.0
-102.48,288.41,959.53,2135.0,2135.0,17202.5
-100.77,288.77,958.43,2205.0,1750.0,17727.5
-99.06,289.38,956.72,2695.0,105.0,17972.5
-96.99,290.48,954.89,1960.0,-70.0,17972.5
-94.79,291.95,953.19,315.0,420.0,17710.0
-92.6,293.29,951.97,-262.5,-70.0,17430.0
-90.52,294.75,951.23,-280.0,-612.5,16992.5
-88.57,296.22,950.87,-402.5,-1120.0,16450.0
-86.5,297.56,950.99,-402.5,-1435.0,15872.5
-84.3,298.53,951.48,-35.0,-1400.0,15610.0
-82.23,299.39,951.84,-70.0,-892.5,15487.5
-80.4,300.24,952.09,280.0,-752.5,15680.0
-78.2,301.22,952.09,525.0,-752.5,15820.0
-76.01,302.32,951.6,560.0,-1172.5,15417.5
-73.81,303.78,950.87,560.0,-2135.0,14840.0
-71.49,305.49,950.62,-612.5,-1750.0,13965.0
-69.54,306.71,951.23,-910.0,-1452.5,13090.0
-67.83,307.44,951.97,175.0,-1872.5,12845.0
-66.25,308.17,952.45,210.0,-1820.0,12425.0
-64.54,308.9,953.06,-805.0,-1172.5,12092.5
-62.59,309.15,954.41,-437.5,-192.5,12302.5
-59.9,309.39,955.5,1050.0,612.5,12495.0
-56.49,309.88,955.26,1855.0,350.0,11987.5
-52.22,310.25,954.16,1557.5,-175.0,11042.5
-47.46,310.73,953.06,1312.5,-210.0,10535.0
-41.97,311.71,951.84,927.5,315.0,9765.0
-35.87,313.54,949.89,297.5,315.0,8330.0
-29.28,316.35,947.7,-577.5,-892.5,6072.5
-22.45,319.88,945.99,-1452.5,-1907.5,2747.5
-15.86,323.3,945.5,-2327.5,-1785.0,-752.5
-10.13,326.47,945.99,-2275.0,-1312.5,-3972.5
-5.61,329.16,946.48,-1435.0,-1977.5,-7350.0
-2.68,330.62,946.72,-1242.5,-3010.0,-10115.0
-1.1,330.86,947.21,-1645.0,-2975.0,-11515.0
-0.73,330.13,947.94,-1802.5,-2047.5,-11917.5
-0.98,328.42,947.94,-1190.0,-1995.0,-11812.5
-1.46,326.96,946.84,-1487.5,-2187.5,-11690.0
-2.44,326.23,945.26,-3220.0,-2275.0,-12092.5
-3.78,325.86,944.52,-5407.5,-1942.5,-13002.5
-5.12,325.01,945.13,-6720.0,-1102.5,-14192.5
-6.71,323.79,947.09,-5862.5,-997.5,-14805.0
-8.91,322.08,948.92,-3517.5,-1645.0,-14490.0
-11.1,320.62,949.89,-2625.0,-1890.0,-13842.5
-12.69,319.76,950.38,-3010.0,-1610.0,-13230.0
-13.66,319.4,950.87,-3657.5,-980.0,-13720.0
-14.15,319.15,951.36,-4200.0,-962.5,-14840.0
-14.64,318.91,951.97,-4025.0,-1505.0,-16152.5
-15.25,318.42,952.94,-3500.0,-1610.0,-17272.5
-15.98,317.93,954.16,-3692.5,-472.5,-17622.5
-16.84,317.32,955.5,-4095.0,735.0,-18480.0
-17.93,316.59,956.72,-2957.5,52.5,-19337.5
-19.03,315.74,957.46,-2012.5,-472.5,-19792.5
-20.01,315.13,957.82,-2520.0,507.5,-20510.0
-20.74,314.27,957.82,-3377.5,875.0,-21875.0
-22.2,312.69,958.19,-3167.5,87.5,-22767.5
-24.28,310.86,958.68,-2240.0,-262.5,-22925.0
-26.84,308.9,958.68,-1977.5,0.0,-22645.0
-29.04,307.44,958.31,-3255.0,630.0,-22680.0
-31.23,305.98,958.07,-4410.0,962.5,-23380.0
-33.43,304.63,958.68,-4532.5,1120.0,-24237.5
-36.23,303.17,959.41,-3990.0,1330.0,-24780.0
-39.16,301.58,960.26,-4235.0,1592.5,-25182.5
-42.33,299.63,961.48,-3762.5,1540.0,-25900.0
-45.87,297.19,962.46,-1995.0,595.0,-25777.5
-49.41,294.51,962.82,-1260.0,472.5,-24972.5
-52.95,292.07,962.7,-1802.5,1382.5,-24185.0
-56.24,289.63,961.97,-2642.5,1312.5,-23870.0
-59.41,287.31,961.6,-3185.0,770.0,-23870.0
-62.59,284.63,961.97,-2975.0,945.0,-23520.0
-65.88,282.06,962.7,-2310.0,1487.5,-22575.0
-68.81,279.87,962.95,-1942.5,1592.5,-22085.0
-71.74,278.04,962.82,-1907.5,787.5,-22102.5
-74.66,276.21,962.82,-2642.5,665.0,-22225.0
-77.59,274.01,963.68,-3570.0,1330.0,-22207.5
-80.76,271.57,965.26,-2765.0,1557.5,-21700.0
-83.81,269.25,966.73,-1347.5,1750.0,-21122.5
-86.86,267.06,967.7,-700.0,2030.0,-20387.5
-89.55,265.11,968.19,-840.0,2450.0,-19862.5
-91.99,263.64,968.68,-490.0,2362.5,-19845.0
-94.31,262.06,968.56,-227.5,1942.5,-20055.0
-96.62,260.47,968.56,-770.0,2240.0,-19775.0
-98.94,259.13,969.05,-525.0,2747.5,-19320.0
-101.02,258.15,969.29,175.0,2887.5,-19215.0
-102.6,257.42,968.92,192.5,2450.0,-19372.5
-103.94,256.93,968.56,-175.0,2397.5,-20020.0
-105.29,256.32,968.31,-437.5,2555.0,-20580.0
-106.75,255.83,968.31,-350.0,2607.5,-21227.5
-108.34,255.1,968.19,-245.0,2467.5,-21840.0
-109.8,254.25,967.95,-315.0,2642.5,-22487.5
-111.63,253.39,967.7,-507.5,2940.0,-23170.0
-113.95,252.17,967.22,-350.0,2502.5,-23257.5
-116.51,250.71,966.73,-560.0,2310.0,-23380.0
-119.19,249.0,966.48,-997.5,2642.5,-23362.5
-122.12,247.17,966.48,-1452.5,2957.5,-23292.5
-125.54,245.22,966.73,-1050.0,2887.5,-23310.0
-129.69,242.9,966.73,-507.5,2362.5,-23187.5
-134.93,239.73,966.73,-735.0,2012.5,-22382.5
-141.03,236.07,966.97,-857.5,1942.5,-21577.5
-148.47,231.8,967.22,507.5,507.5,-19547.5
-156.65,226.8,967.22,1207.5,-52.5,-15925.0
-164.94,221.92,967.09,-105.0,1417.5,-12600.0
-173.97,216.92,966.97,-157.5,1295.0,-9257.5
-183.49,211.79,967.09,1557.5,-560.0,-5267.5
-192.64,206.91,966.85,2397.5,-1452.5,-647.5
-200.81,202.76,966.61,1872.5,-735.0,3797.5
-207.77,199.35,966.12,1540.0,-385.0,7682.5
-213.5,196.66,965.51,1767.5,-997.5,10955.0
-217.89,194.96,964.65,1785.0,-1697.5,13737.5
-220.82,193.86,964.04,1417.5,-1925.0,15907.5
-222.77,193.25,963.56,1435.0,-2082.5,17885.0
-223.87,193.0,963.31,2047.5,-2695.0,19827.5
-223.99,193.25,963.07,2467.5,-3395.0,21157.5
-223.26,193.74,962.7,2765.0,-4147.5,22172.5
-221.8,194.59,962.58,3010.0,-4392.5,23257.5
-219.36,195.93,962.34,2782.5,-4077.5,24395.0
-215.94,198.01,962.21,2065.0,-3850.0,24377.5
-212.04,200.08,962.34,1890.0,-4917.5,23660.0
-208.38,201.79,963.19,2152.5,-5425.0,22890.0
-204.84,203.5,964.53,2695.0,-4795.0,23362.5
-200.93,205.45,965.87,3202.5,-3657.5,23782.5
-196.91,207.77,966.48,3657.5,-3342.5,23275.0
-193.25,209.96,966.24,4252.5,-4357.5,22540.0
-190.2,211.55,965.51,4375.0,-5180.0,22732.5
-187.64,212.89,964.78,3710.0,-4777.5,23817.5
-184.83,214.35,964.17,3167.5,-4182.5,24885.0
-181.78,216.18,963.68,3062.5,-4427.5,25270.0
-178.36,218.38,963.31,2992.5,-4795.0,25147.5
-174.95,220.45,963.07,2957.5,-5040.0,24955.0
-172.02,222.41,963.19,3150.0,-5145.0,24972.5
-169.46,223.99,963.31,3850.0,-5425.0,25567.5
-166.77,225.46,963.31,4025.0,-5127.5,26425.0
-163.85,227.16,962.82,3710.0,-4987.5,27282.5
-160.19,228.99,962.7,3430.0,-4515.0,27772.5
-156.16,231.31,962.58,2887.5,-3920.0,27510.0
-152.38,233.26,962.46,3027.5,-4392.5,27020.0
-149.21,234.97,962.46,3885.0,-5687.5,26950.0
-146.52,235.95,962.58,4235.0,-5950.0,27580.0
-144.08,236.68,962.82,4060.0,-5477.5,28857.5
-141.4,237.41,962.82,4567.5,-5547.5,30292.5
-138.35,238.51,962.58,4742.5,-5407.5,31202.5
-134.57,240.1,962.34,4165.0,-4795.0,31780.0
-130.3,242.17,961.97,4025.0,-4795.0,31815.0
-126.15,244.37,961.36,4847.5,-6265.0,31605.0
-121.88,246.44,960.38,4830.0,-7105.0,31675.0
-117.36,248.39,959.77,3990.0,-6422.5,32042.5
-112.12,250.95,959.41,3885.0,-5845.0,32655.0
-105.9,254.13,958.92,3447.5,-5302.5,32077.5
-99.31,257.54,958.31,3132.5,-5757.5,30502.5
-92.84,260.84,958.07,3377.5,-6632.5,28962.5
-87.11,263.76,957.94,3727.5,-7122.5,27947.5
-81.74,266.33,957.82,3797.5,-6982.5,27755.0
-76.13,268.4,958.07,2660.0,-5617.5,27527.5
-70.76,270.35,958.68,2922.5,-5460.0,26897.5
-66.0,271.82,959.16,3780.0,-6160.0,26495.0
-61.61,273.16,959.9,3167.5,-5442.5,26617.5
-57.22,274.26,960.87,3132.5,-4462.5,26827.5
-52.46,275.84,961.85,4410.0,-4060.0,27335.0
-47.34,278.04,962.09,4725.0,-3675.0,26530.0
-42.21,280.36,961.6,3990.0,-3990.0,25252.5
-37.21,282.43,961.48,3972.5,-4147.5,24832.5
-32.09,284.99,961.24,4760.0,-3517.5,24727.5
-26.35,287.8,960.14,4427.5,-3115.0,23922.5
-20.01,290.85,958.68,3097.5,-2870.0,22540.0
-13.3,294.14,957.7,1767.5,-2397.5,20860.0
-6.59,297.44,957.58,1312.5,-1662.5,19127.5
0.24,300.85,957.7,1785.0,-1400.0,17360.0
7.32,304.39,957.7,2082.5,-1522.5,15172.5
14.52,307.93,957.7,1890.0,-1225.0,12950.0
21.84,311.71,957.82,1750.0,-192.5,10517.5
29.4,315.61,957.46,1400.0,490.0,7787.5
36.72,319.64,956.97,997.5,577.5,4480.0
43.43,323.3,956.24,682.5,210.0,840.0
49.29,326.47,955.75,245.0,35.0,-2415.0
54.53,329.16,955.75,-210.0,490.0,-4795.0
59.29,331.47,955.99,-770.0,1417.5,-7507.5
63.2,333.55,955.87,-542.5,1260.0,-10220.0
66.37,335.01,955.5,35.0,612.5,-12442.5
68.56,336.11,955.02,-332.5,1032.5,-14647.5
70.03,336.6,954.77,-1067.5,1662.5,-16152.5
70.52,336.6,954.53,-1452.5,2100.0,-17377.5
70.27,336.23,954.28,-1487.5,2135.0,-18480.0
69.42,335.62,953.92,-1347.5,1942.5,-19267.5
68.2,334.89,953.31,-1452.5,1872.5,-20072.5
66.61,334.16,952.21,-2065.0,1610.0,-20755.0
64.9,333.43,951.6,-2922.5,1837.5,-21035.0
63.32,332.69,951.6,-3272.5,2485.0,-21525.0
61.61,332.08,951.72,-3132.5,2887.5,-22155.0
59.9,331.35,951.84,-3325.0,2835.0,-23222.5
57.95,330.62,952.21,-3185.0,2450.0,-24097.5
55.63,329.4,952.7,-3080.0,2590.0,-24780.0
53.31,328.18,953.19,-2887.5,2800.0,-25042.5
50.75,327.08,953.55,-3307.5,3185.0,-25620.0
48.19,325.98,953.67,-3080.0,2800.0,-26250.0
45.51,324.64,953.92,-3307.5,2642.5,-26880.0
42.58,323.18,954.41,-3657.5,3237.5,-27282.5
39.53,321.47,955.02,-3272.5,3307.5,-27405.0
36.23,319.76,955.5,-2747.5,3255.0,-27702.5
32.94,318.05,955.75,-2555.0,3307.5,-27597.5
29.52,316.59,955.87,-3132.5,3745.0,-27650.0
26.6,315.13,955.99,-3972.5,4112.5,-28437.5
23.3,313.54,956.48,-4340.0,4025.0,-29207.5
19.52,311.83,957.46,-3465.0,3640.0,-29470.0
15.74,310.0,958.31,-2625.0,4182.5,-29155.0
12.08,308.42,958.43,-2520.0,4532.5,-28980.0
8.54,306.95,958.07,-2835.0,4235.0,-29452.5
5.12,305.61,957.46,-3430.0,3885.0,-30065.0
1.71,304.27,957.21,-3762.5,3675.0,-30520.0
-1.46,302.93,957.33,-4077.5,4112.5,-31010.0
-4.88,301.58,957.46,-3972.5,4375.0,-31955.0
-8.42,300.12,957.21,-4007.5,3885.0,-32112.5
-11.96,298.66,957.21,-4672.5,4252.5,-32445.0
-15.86,296.7,957.46,-5302.5,4532.5,-32987.5
-20.01,294.51,958.31,-5057.5,4025.0,-33495.0
-24.4,291.95,959.65,-3867.5,3920.0,-33565.0
-28.91,289.38,960.87,-3692.5,5040.0,-33092.5
-33.43,286.94,961.36,-4200.0,5950.0,-32865.0
-37.94,284.5,961.6,-3937.5,4987.5,-33110.0
-42.7,281.7,962.09,-2887.5,4007.5,-33040.0
-47.7,278.89,962.7,-2870.0,4987.5,-32515.0
-52.83,275.96,963.07,-3412.5,5967.5,-31920.0
-58.32,273.16,963.31,-2380.0,5232.5,-31622.5
-64.05,270.11,963.19,-1890.0,4305.0,-31395.0
-70.27,266.69,963.43,-2222.5,4375.0,-30572.5
-77.35,263.03,963.92,-2030.0,4690.0,-29295.0
-84.67,259.13,964.29,-1540.0,4480.0,-27545.0
-92.23,255.35,964.29,-1715.0,4287.5,-25865.0
-100.04,251.44,964.53,-1977.5,4007.5,-24377.5
-108.34,247.17,965.26,-1050.0,3377.5,-22190.0
-116.88,242.78,966.24,140.0,3447.5,-19320.0
-125.54,238.39,966.85,700.0,3692.5,-16450.0
-133.96,234.24,966.73,945.0,3255.0,-13545.0
-142.25,230.34,966.61,1260.0,2520.0,-10710.0
-150.3,226.68,966.36,1540.0,1977.5,-8050.0
-158.6,223.14,965.87,1732.5,1190.0,-5250.0
-166.65,219.6,965.26,1960.0,490.0,-1732.5
-174.22,216.31,964.65,1942.5,455.0,2187.5
-180.56,213.62,964.29,1365.0,910.0,5565.0
-185.93,211.67,964.04,1505.0,490.0,8225.0
-190.44,210.21,963.8,2310.0,-367.5,10605.0
-194.1,209.11,963.56,2695.0,-805.0,12757.5
-197.15,208.13,963.07,2852.5,-1452.5,14840.0
-199.59,207.64,962.58,2975.0,-2205.0,16922.5
-200.93,207.64,962.09,3272.5,-2677.5,19057.5
-201.18,208.38,961.6,2800.0,-2695.0,20370.0
-200.57,209.47,961.12,2327.5,-2905.0,20947.5
-199.59,210.82,960.87,2747.5,-3657.5,21385.0
-198.25,212.16,960.87,3045.0,-4042.5,22102.5
-196.91,213.5,960.87,2975.0,-3920.0,22890.0
-194.96,214.96,960.87,3097.5,-3867.5,23852.5
-192.52,216.67,960.75,3517.5,-4305.0,24657.5
-189.1,218.87,960.51,3167.5,-4042.5,25147.5
-184.95,221.55,960.38,2660.0,-3692.5,24272.5
-181.05,224.11,960.14,2922.5,-4655.0,23240.0
-177.75,226.43,960.26,3447.5,-5355.0,23065.0
-174.46,228.51,960.38,3027.5,-4585.0,23205.0
-171.53,230.34,960.38,2660.0,-4462.5,23537.5
-168.6,231.8,960.38,3167.5,-5250.0,23852.5
-165.68,233.39,960.87,3517.5,-5127.5,24342.5
-162.87,235.09,961.12,3290.0,-4375.0,24692.5
-159.94,236.92,961.12,3220.0,-4532.5,24972.5
-156.53,239.0,961.12,3202.5,-4655.0,25130.0
-152.99,241.19,961.36,2835.0,-3762.5,25025.0
-149.33,243.27,961.6,3202.5,-3797.5,24885.0
-145.91,245.22,961.73,3780.0,-4410.0,24867.5
-142.62,246.93,961.73,3797.5,-4550.0,25025.0
-139.2,248.51,961.6,3587.5,-4182.5,25392.5
-135.66,250.59,961.6,3482.5,-3780.0,25690.0
-131.52,252.91,961.36,3447.5,-3517.5,25847.5
-127.0,255.59,960.99,3115.0,-3290.0,25497.5
-122.0,258.64,960.63,2992.5,-3132.5,24255.0
-117.49,261.32,960.14,3202.5,-3902.5,23065.0
-113.46,263.52,959.9,3657.5,-4742.5,22592.5
-109.8,265.23,959.65,3465.0,-4620.0,22680.0
-106.14,266.69,959.53,2835.0,-4147.5,22907.5
-102.6,268.4,959.77,2887.5,-4007.5,23065.0
-98.82,270.23,960.02,3395.0,-4042.5,22575.0
-95.28,271.94,960.14,3692.5,-4147.5,22172.5
-92.11,273.52,960.02,3500.0,-3762.5,22172.5
-89.18,274.99,959.77,3202.5,-3325.0,22347.5
-86.38,276.21,959.41,3377.5,-3675.0,22417.5
-83.69,277.43,959.04,3587.5,-4112.5,22785.0
-80.64,278.77,958.55,3150.0,-3587.5,23082.5
-77.47,280.11,958.19,2870.0,-3552.5,23065.0
-74.3,281.58,957.82,3255.0,-4077.5,23065.0
-71.25,282.92,957.7,3517.5,-4077.5,22907.5
-68.56,284.14,957.33,3710.0,-4445.0,23012.5
-66.12,285.24,956.85,3885.0,-4602.5,23555.0
-63.44,286.33,956.11,3745.0,-4690.0,24062.5
-60.51,287.43,955.5,3342.5,-4795.0,24220.0
-57.46,288.41,955.38,3080.0,-4970.0,24255.0
-54.29,289.51,955.5,3045.0,-4672.5,24745.0
-50.75,290.85,955.75,3010.0,-4025.0,25147.5
-46.97,292.19,955.75,3080.0,-3832.5,24797.5
-43.19,293.53,955.75,3535.0,-4375.0,24465.0
-39.28,294.75,955.5,3482.5,-4217.5,24710.0
-35.38,295.73,955.26,3360.0,-3762.5,24972.5
-31.35,296.95,954.77,3780.0,-4130.0,24920.0
-27.21,298.05,954.28,3692.5,-4585.0,24832.5
-22.94,299.39,953.67,3395.0,-4147.5,25025.0
-18.06,301.1,953.19,2887.5,-3587.5,25322.5
-12.69,303.29,952.58,2572.5,-3605.0,23817.5
-7.32,305.49,951.97,2765.0,-4795.0,22382.5
-1.95,307.56,951.84,2555.0,-4392.5,21577.5
3.66,309.76,952.33,2432.5,-2975.0,21192.5
9.76,312.2,952.7,1960.0,-1907.5,20352.5
16.59,315.13,953.31,1837.5,-1137.5,19040.0
24.03,318.66,953.8,2275.0,-455.0,17010.0
31.96,322.57,953.8,2590.0,-385.0,14280.0
40.02,326.72,953.31,1890.0,-70.0,11007.5
48.07,330.86,952.82,1435.0,297.5,7857.5
56.12,335.01,952.33,1102.5,857.5,4760.0
63.93,338.79,951.48,875.0,1015.0,1137.5
71.25,342.21,950.5,490.0,472.5,-2852.5
77.35,345.02,949.77,-262.5,350.0,-6230.0
82.35,347.33,949.77,-805.0,1172.5,-9135.0
86.25,349.16,949.77,-682.5,1452.5,-11567.5
89.3,350.75,949.4,-595.0,1277.5,-13755.0
91.74,351.85,949.16,-1085.0,1837.5,-16047.5
93.09,352.34,948.92,-1820.0,2380.0,-18147.5
93.21,352.34,948.67,-1347.5,1592.5,-19495.0
92.72,351.85,948.55,-927.5,1592.5,-20195.0
91.87,351.24,948.18,-1732.5,2835.0,-21140.0
90.4,350.38,947.7,-2170.0,2747.5,-22172.5
88.21,349.29,947.33,-1942.5,1715.0,-22820.0
85.52,347.94,947.09,-2345.0,1697.5,-23082.5
82.96,346.85,947.21,-2642.5,2310.0,-23082.5
80.64,345.75,947.45,-2450.0,2870.0,-23275.0
78.57,344.89,947.57,-2467.5,3062.5,-23957.5
76.37,343.92,947.45,-2555.0,2887.5,-25025.0
73.93,342.7,947.7,-2712.5,3097.5,-25567.5
71.13,341.48,947.82,-2415.0,3150.0,-25655.0
68.56,340.38,947.57,-2432.5,2887.5,-26057.5
66.0,339.4,946.96,-3255.0,2415.0,-27020.0
63.32,338.55,946.84,-3377.5,1785.0,-27947.5
60.51,337.45,947.09,-3062.5,1907.5,-28455.0
57.58,336.11,947.33,-3605.0,2537.5,-28717.5
54.78,334.77,948.06,-4515.0,3692.5,-28980.0
51.85,333.43,949.4,-4515.0,4532.5,-29417.5
48.68,331.96,950.75,-3167.5,4322.5,-29820.0
45.38,330.5,951.6,-2362.5,3972.5,-30170.0
42.33,329.28,951.84,-2380.0,4340.0,-30782.5
39.16,328.06,951.97,-2572.5,4462.5,-31360.0
35.99,326.96,951.84,-3482.5,4900.0,-32182.5
32.57,325.5,952.09,-4147.5,5232.5,-33425.0
28.43,323.91,952.58,-3412.5,4427.5,-33617.5
23.91,322.08,952.82,-2730.0,4375.0,-33302.5
19.4,320.25,952.82,-2555.0,4620.0,-33127.5
15.25,318.66,952.33,-3045.0,4952.5,-33337.5
11.22,317.2,951.84,-4410.0,5197.5,-34090.0
6.83,315.37,951.84,-4112.5,4287.5,-34667.5
2.07,313.3,952.33,-3272.5,3850.0,-34930.0
-2.81,311.22,952.7,-3535.0,4497.5,-34650.0
-7.56,309.03,953.06,-4042.5,5232.5,-34405.0
-12.2,307.07,953.43,-3867.5,5285.0,-34597.5
-17.08,304.88,953.55,-3920.0,5267.5,-35035.0
-22.45,302.32,954.04,-3780.0,5162.5,-34947.5
-27.94,299.63,954.53,-3517.5,5180.0,-34230.0
-33.67,296.95,955.26,-3657.5,5845.0,-33967.5
-39.65,294.02,955.87,-2765.0,5302.5,-33285.0
-45.63,291.21,956.24,-2012.5,5057.5,-32497.5
-51.48,288.65,956.24,-2555.0,5600.0,-31832.5
-57.34,286.09,956.11,-3237.5,5880.0,-31535.0
-63.32,283.41,956.11,-3132.5,5285.0,-31360.0
-69.66,280.6,956.24,-2555.0,4550.0,-30607.5
-76.13,277.55,956.36,-1907.5,4182.5,-29557.5
-82.72,274.5,956.48,-1907.5,4620.0,-28262.5
-89.43,271.33,956.36,-2782.5,5232.5,-27177.5
-96.38,268.03,956.36,-2695.0,4567.5,-26057.5
-103.82,264.37,956.72,-2152.5,3675.0,-24605.0
-111.51,260.59,957.21,-1417.5,3570.0,-22557.5
-119.56,256.81,957.58,-1085.0,3570.0,-20352.5
-127.61,252.91,957.58,-875.0,3272.5,-17867.5
-135.79,248.88,957.7,-665.0,2905.0,-15540.0
-144.69,244.73,957.7,227.5,1767.5,-13020.0
-154.09,240.34,957.7,1295.0,350.0,-9957.5
-163.97,235.7,957.33,1365.0,-350.0,-6317.5
-173.48,231.07,956.97,927.5,-332.5,-1820.0
-182.02,226.92,956.97,927.5,-227.5,3027.5
-189.34,223.99,956.97,1137.5,-87.5,6807.5
-195.44,221.55,956.97,1592.5,-665.0,9572.5
-200.57,219.72,956.97,2345.0,-1575.0,12390.0
-204.72,218.38,956.72,2345.0,-1505.0,15050.0
-207.64,217.4,956.36,2467.5,-1662.5,17500.0
-209.47,216.92,955.75,2642.5,-2292.5,19635.0
-210.08,217.16,955.14,2502.5,-2712.5,21122.5
-209.6,218.14,954.65,2170.0,-2957.5,22347.5
-208.13,219.6,954.28,2030.0,-3290.0,23012.5
-205.94,221.31,954.04,2047.5,-4042.5,23240.0
-203.01,223.38,953.92,2292.5,-4445.0,23240.0
-199.84,225.46,954.16,2065.0,-4305.0,23205.0
-196.42,227.65,954.65,2065.0,-3780.0,23310.0
-192.76,229.73,955.14,2607.5,-3745.0,23152.5
-189.34,231.8,955.5,2817.5,-4392.5,22802.5
-186.29,233.39,955.63,2677.5,-4585.0,22557.5
-183.73,234.97,955.63,2712.5,-4742.5,22977.5
-181.17,236.44,955.75,2397.5,-4340.0,23922.5
-178.12,238.39,955.63,2100.0,-3867.5,24430.0
-174.7,240.83,955.5,2467.5,-4182.5,24342.5
-170.8,243.51,955.14,2537.5,-4410.0,23800.0
-166.9,246.2,954.77,1872.5,-4287.5,23502.5
-162.5,248.88,954.77,1120.0,-3447.5,23310.0
-157.99,251.56,954.89,1032.5,-3115.0,22347.5
-153.72,254.13,954.89,1680.0,-4095.0,21157.5
-150.3,255.83,954.77,1540.0,-4795.0,20562.5
-147.13,257.18,955.26,1295.0,-4182.5,21280.0
-143.72,258.64,955.87,1242.5,-2922.5,21910.0
-140.06,260.47,956.11,1277.5,-2922.5,21262.5
-136.76,262.06,956.24,1312.5,-4077.5,20195.0
-134.32,263.03,956.72,1767.5,-4515.0,19950.0
-132.86,263.15,957.46,2152.5,-3955.0,21210.0
-131.64,263.15,958.31,2345.0,-3290.0,22960.0
-129.93,263.52,958.92,2957.5,-2992.5,24167.5
-127.49,264.62,958.92,3412.5,-2835.0,24762.5
-124.2,266.45,958.55,2870.0,-2625.0,24605.0
-120.54,268.4,958.19,2590.0,-2975.0,23905.0
-117.12,270.35,957.82,2835.0,-3657.5,23607.5
-113.46,272.06,957.46,2957.5,-3622.5,23817.5
-109.31,274.01,957.21,2432.5,-2887.5,23765.0
-104.8,276.21,956.72,1627.5,-2695.0,22645.0
-100.77,278.04,956.6,1680.0,-3465.0,21787.5
-97.23,279.5,956.97,2240.0,-3430.0,22067.5
-93.7,281.09,957.58,1820.0,-2222.5,21962.5
-90.28,282.31,957.7,1925.0,-2345.0,21367.5
-87.11,283.41,957.94,2467.5,-3272.5,21245.0
-83.81,284.75,958.31,2905.0,-2975.0,21752.5
-80.15,286.33,958.43,3115.0,-1890.0,21770.0
-76.49,287.92,957.94,2817.5,-2310.0,21017.5
-73.44,289.14,957.46,2922.5,-3255.0,20212.5
-71.0,289.99,957.21,3115.0,-3482.5,20282.5
-68.81,290.73,956.85,3062.5,-3062.5,21402.5
-65.76,291.82,956.48,2152.5,-1872.5,21910.0
-62.46,293.17,955.99,1767.5,-2152.5,21297.5
-59.54,294.51,955.75,2380.0,-3622.5,20527.5
-57.1,295.48,955.5,2975.0,-4357.5,20282.5
-55.27,295.97,955.5,3220.0,-4217.5,21210.0
-53.07,296.46,955.5,3272.5,-3185.0,22330.0
-50.14,297.19,955.26,2712.5,-2170.0,22645.0
-46.85,298.17,954.89,2730.0,-2555.0,22540.0
-43.43,299.39,954.53,3290.0,-3167.5,22277.5
-39.77,300.85,953.8,3220.0,-3535.0,21717.5
-35.99,302.32,952.82,2642.5,-3657.5,21507.5
-31.6,304.02,952.09,2327.5,-3430.0,21455.0
-26.35,306.22,951.6,2362.5,-3010.0,21315.0
-19.76,309.39,951.36,2432.5,-2450.0,20492.5
-11.35,313.78,951.11,2275.0,-1522.5,18410.0
-1.71,319.27,950.5,1312.5,-1032.5,14262.5
8.3,325.01,949.77,367.5,-1452.5,9327.5
17.81,330.25,949.4,-262.5,-1750.0,4655.0
26.35,334.65,949.4,-367.5,-1820.0,665.0
34.04,338.06,949.65,-367.5,-1662.5,-2852.5
40.63,340.75,950.14,-560.0,-1330.0,-6142.5
45.87,342.94,950.5,-315.0,-945.0,-8907.5
50.02,344.77,950.62,-682.5,-315.0,-11305.0
53.19,346.11,950.62,-1557.5,315.0,-13702.5
55.02,346.72,950.87,-1505.0,87.5,-15715.0
55.88,346.72,951.11,-1260.0,105.0,-17167.5
56.0,346.24,951.23,-1085.0,472.5,-17955.0
55.63,345.5,951.11,-1242.5,980.0,-18462.5
54.78,344.53,950.75,-1347.5,945.0,-19127.5
53.68,343.8,950.14,-2100.0,875.0,-19915.0
52.22,342.94,949.77,-2852.5,1242.5,-20720.0
50.51,341.97,949.65,-3080.0,1417.5,-21087.5
48.8,340.87,949.89,-2922.5,1575.0,-21612.5
46.97,339.89,950.26,-2712.5,1697.5,-22172.5
45.14,338.67,950.87,-2887.5,1855.0,-22750.0
42.94,337.45,951.6,-2450.0,2030.0,-23135.0
40.63,335.99,952.45,-2065.0,2100.0,-23380.0
38.19,334.52,953.06,-2222.5,2642.5,-23817.5
35.87,333.06,953.55,-2065.0,3045.0,-24045.0
33.18,331.72,953.92,-1575.0,2765.0,-24342.5
30.5,330.25,953.8,-1645.0,2782.5,-24587.5
27.82,329.03,953.67,-2257.5,3010.0,-24990.0
24.89,327.57,953.92,-2695.0,3150.0,-25532.5
21.72,326.11,954.53,-2310.0,3027.5,-25602.5
18.54,324.64,955.14,-1575.0,3342.5,-25497.5
15.49,323.42,955.14,-1277.5,3675.0,-25305.0
12.81,322.57,954.65,-1522.5,3482.5,-25812.5
10.0,321.71,953.92,-2222.5,3237.5,-26547.5
7.2,320.86,953.43,-2695.0,3115.0,-27020.0
4.39,320.01,953.31,-3010.0,3202.5,-27597.5
1.71,318.91,953.43,-3237.5,3395.0,-28035.0
-1.1,317.93,953.67,-3167.5,3185.0,-28822.5
-4.03,316.96,954.16,-2957.5,2922.5,-29435.0
-7.08,315.37,954.77,-3167.5,3360.0,-29925.0
-10.74,313.66,955.75,-2817.5,3745.0,-30187.5
-14.27,311.83,956.97,-2100.0,4322.5,-29925.0
-17.81,310.12,957.46,-2327.5,5110.0,-30257.5
-21.84,308.05,957.58,-2257.5,4690.0,-30642.5
-26.23,305.85,957.58,-1785.0,4217.5,-30590.0
-30.74,303.66,957.46,-1872.5,4655.0,-29960.0
-35.62,301.58,956.97,-2310.0,4795.0,-29540.0
-40.38,299.63,956.36,-2625.0,4060.0,-29610.0
-45.26,297.44,955.99,-2555.0,3482.5,-29487.5
-50.26,295.24,956.11,-2432.5,3797.5,-28875.0
-55.39,293.17,956.24,-2712.5,4497.5,-28402.5
-60.27,290.97,956.11,-2642.5,4095.0,-27982.5
-65.39,288.9,956.11,-2432.5,3657.5,-27650.0
-70.52,286.7,956.24,-2362.5,3552.5,-27265.0
-75.88,284.38,956.48,-2310.0,3640.0,-26460.0
-81.01,281.94,956.6,-2520.0,3832.5,-25742.5
-86.25,279.5,956.97,-2275.0,3482.5,-25305.0
-91.74,276.94,957.46,-1330.0,2957.5,-24395.0
-97.36,274.26,957.7,-1015.0,3080.0,-23152.5
-102.85,271.57,957.58,-1417.5,3307.5,-21962.5
-108.7,268.77,957.46,-1645.0,2975.0,-21280.0
-115.05,265.72,957.46,-1365.0,2152.5,-20335.0
-122.49,262.06,957.58,-542.5,1242.5,-18550.0
-130.3,257.79,957.7,-437.5,1015.0,-15627.5
-138.35,253.52,958.07,-770.0,1697.5,-12057.5
-145.91,249.61,958.43,-455.0,1522.5,-8977.5
-153.23,246.2,958.55,367.5,595.0,-6422.5
-160.06,243.02,958.68,315.0,105.0,-4252.5
-167.14,239.85,958.92,647.5,-227.5,-1522.5
-174.34,236.44,959.29,997.5,-157.5,1855.0
-181.05,233.02,959.53,1295.0,-315.0,5425.0
-187.27,229.97,959.77,1925.0,-892.5,9117.5
-192.27,227.77,959.9,2555.0,-962.5,12932.5
-195.44,226.55,959.65,1872.5,-122.5,15260.0
-197.27,226.19,959.41,1942.5,-945.0,16590.0
-198.49,226.19,958.8,2992.5,-2450.0,17622.5
-199.35,226.43,957.94,3062.5,-3080.0,18760.0
-199.84,226.43,957.21,2240.0,-3062.5,20335.0
-199.84,226.55,956.85,2432.5,-3255.0,22435.0
-198.25,227.53,956.85,2380.0,-2677.5,24272.5
-195.2,229.48,956.97,1505.0,-1767.5,24307.5
-191.42,232.04,956.85,1890.0,-2782.5,23240.0
-187.88,234.48,956.97,3150.0,-4305.0,22015.0
-185.07,236.44,956.72,4007.5,-5302.5,21980.0
-182.51,237.66,955.99,2817.5,-4655.0,22890.0
-179.83,239.0,955.75,2275.0,-4130.0,24132.5
-176.41,240.95,955.75,2065.0,-3762.5,24482.5
-172.63,243.39,955.75,2012.5,-3920.0,23380.0
-169.34,245.59,955.75,2432.5,-5285.0,22575.0
-166.65,247.17,956.24,2467.5,-5512.5,22575.0
-164.21,248.39,956.97,2292.5,-4550.0,23782.5
-161.53,249.49,957.82,2590.0,-3535.0,24605.0
-158.6,250.95,958.19,3272.5,-3990.0,24920.0
-155.18,252.66,958.31,3412.5,-4077.5,24780.0
-152.01,254.25,958.43,3220.0,-3500.0,24797.5
-149.08,255.96,958.43,3150.0,-3325.0,25200.0
-145.91,257.42,958.43,3150.0,-2992.5,25620.0
-142.25,259.13,958.31,3465.0,-3045.0,26057.5
-138.35,261.32,957.94,3377.5,-3045.0,25725.0
-134.2,263.52,957.46,2782.5,-3237.5,25007.5
-130.42,265.47,957.21,2782.5,-3570.0,24780.0
-126.88,267.18,957.33,3097.5,-3622.5,24692.5
-123.59,268.89,957.33,3517.5,-3552.5,24972.5
-120.29,270.47,957.21,3920.0,-3342.5,25427.5
-116.88,272.06,956.85,3587.5,-3115.0,25585.0
-113.22,273.77,956.11,3272.5,-3377.5,25935.0
-109.43,275.72,955.38,2975.0,-3220.0,25672.5
-105.41,277.79,954.77,2730.0,-3447.5,25025.0
-101.5,279.75,954.16,2677.5,-4007.5,24710.0
-97.84,281.7,953.8,2642.5,-4235.0,24570.0
-93.94,283.53,953.55,2677.5,-4147.5,24430.0
-90.04,285.36,953.31,2957.5,-4270.0,24587.5
-85.77,287.31,953.06,2782.5,-3902.5,24395.0
-81.37,289.51,952.58,2082.5,-3727.5,23572.5
-76.98,291.58,952.45,2222.5,-4410.0,22942.5
-72.59,293.41,952.58,2607.5,-4375.0,22452.5
-68.44,295.24,952.7,2275.0,-3885.0,21752.5
-64.42,296.58,953.06,2572.5,-3902.5,21735.0
-60.39,298.17,953.55,2747.5,-3395.0,21647.5
-56.0,299.88,953.67,2712.5,-3010.0,21262.5
-51.48,301.83,953.55,2625.0,-3010.0,20387.5
-47.09,303.78,953.31,2730.0,-3272.5,19197.5
-43.19,305.49,953.19,2677.5,-3220.0,18637.5
-39.41,306.83,953.31,2205.0,-2152.5,18725.0
-35.38,308.17,953.55,1942.5,-1295.0,18445.0
-31.48,309.88,953.55,2187.5,-1522.5,17710.0
-27.33,311.59,953.55,2292.5,-1872.5,16852.5
-23.18,313.54,953.55,2467.5,-1382.5,16432.5
-18.79,315.86,953.31,2292.5,-595.0,15400.0
-14.27,318.18,952.7,2292.5,-1102.5,13877.5
-10.13,320.25,951.97,2345.0,-1715.0,12582.5
-5.61,322.32,951.6,1890.0,-927.5,11812.5
-0.49,324.89,950.99,1260.0,140.0,10780.0
5.37,328.18,950.26,840.0,157.5,8487.5
11.83,331.96,949.28,892.5,-700.0,5320.0
18.18,335.62,948.43,525.0,-1137.5,2117.5
24.4,338.92,947.7,-472.5,-892.5,-1085.0
29.89,341.48,947.57,-1207.5,-770.0,-3745.0
34.89,343.67,948.18,-980.0,-332.5,-6107.5
39.53,345.87,948.92,-682.5,420.0,-8627.5
43.31,347.7,949.16,-840.0,595.0,-11427.5
45.87,348.8,949.28,-997.5,297.5,-13790.0
47.21,349.53,949.4,-822.5,297.5,-15417.5
47.82,349.65,949.04,-1102.5,735.0,-16450.0
48.19,349.53,948.67,-2222.5,1155.0,-17745.0
48.31,348.92,948.92,-2327.5,997.5,-18952.5
47.7,348.19,949.65,-2187.5,1382.5,-19897.5
46.36,347.33,950.62,-1470.0,1837.5,-20562.5
44.9,346.36,951.11,-1225.0,2257.5,-20737.5
43.19,345.38,951.6,-1645.0,2957.5,-21542.5
40.99,344.16,951.6,-805.0,2625.0,-21857.5
38.92,342.94,951.11,-980.0,2677.5,-22155.0
36.84,341.84,950.62,-1820.0,3097.5,-22942.5
34.4,340.87,949.89,-1575.0,2380.0,-23397.5
31.96,339.77,949.16,-2117.5,2135.0,-23572.5
29.52,338.79,948.79,-2940.0,2555.0,-23835.0
27.57,338.06,948.67,-3325.0,2975.0,-24430.0
25.62,337.33,948.92,-3202.5,2765.0,-25462.5
23.55,336.48,949.16,-2380.0,2380.0,-26180.0
21.47,335.74,949.4,-2555.0,2870.0,-26932.5
19.15,334.77,949.65,-3377.5,3430.0,-27772.5
16.35,333.43,950.14,-3605.0,3220.0,-28525.0
13.3,331.72,951.11,-3272.5,3342.5,-28927.5
10.0,329.89,952.21,-2625.0,3797.5,-29120.0
6.59,328.3,953.06,-2135.0,3762.5,-29242.5
3.17,326.84,953.43,-2187.5,4200.0,-29365.0
-0.24,325.37,953.55,-2852.5,4707.5,-29855.0
-4.03,323.79,953.55,-2712.5,4375.0,-30607.5
-8.17,321.96,953.31,-1995.0,3850.0,-30817.5
-12.57,319.88,952.94,-2292.5,4217.5,-30520.0
-17.08,317.57,952.33,-3377.5,4847.5,-30170.0
-21.72,315.25,952.33,-4112.5,5040.0,-29750.0
-26.23,313.17,952.82,-3430.0,4777.5,-29470.0
-30.74,311.1,953.31,-2957.5,4707.5,-29470.0
-35.26,309.15,953.8,-3220.0,4882.5,-29470.0
