acc_x,acc_y,acc_z,gyro_x,gyro_y,gyro_z
9.0,249.61,973.07,-5775.0,-3640.0,-22995.0
-48.07,244.24,975.88,-4865.0,-1977.5,-17990.0
-59.78,238.88,978.68,-3937.5,-332.5,-11252.5
-71.25,234.12,981.25,-2625.0,315.0,-4690.0
-81.62,229.73,983.56,-1470.0,-245.0,1487.5
-90.77,225.82,985.76,437.5,-1645.0,6650.0
-98.33,222.53,987.96,3220.0,-2222.5,10990.0
-104.43,220.09,989.54,6247.5,-2397.5,15697.5
-108.82,218.87,989.66,6930.0,-1977.5,19635.0
-111.26,218.75,988.93,6457.5,-2152.5,22557.5
-111.75,218.99,987.96,4602.5,-1452.5,23660.0
-111.63,218.87,987.47,2870.0,-1242.5,23940.0
-111.51,217.53,987.47,3902.5,-2397.5,24972.5
-111.75,215.7,987.71,5967.5,-3920.0,26985.0
-112.12,213.99,987.47,7122.5,-5460.0,29697.5
-112.24,212.52,986.86,6650.0,-5862.5,32410.0
-112.24,211.43,986.37,6790.0,-6527.5,35542.5
-111.63,210.57,986.49,8155.0,-7717.5,38622.5
-110.04,210.33,986.37,9852.5,-9117.5,41405.0
-107.48,210.82,985.52,12092.5,-11025.0,43522.5
-103.46,211.79,984.17,12040.0,-10815.0,45325.0
-98.58,213.62,983.08,9992.5,-8102.5,46620.0
-93.21,215.7,982.71,9257.5,-6160.0,47127.5
-87.72,217.89,982.34,9310.0,-5442.5,48002.5
-81.62,220.09,981.61,8925.0,-4882.5,48282.5
-75.52,222.04,980.51,8977.5,-4935.0,47897.5
-69.54,223.75,979.29,9695.0,-6282.5,47845.0
-63.2,225.21,978.2,11112.5,-7350.0,48405.0
-56.0,227.04,977.22,11515.0,-6457.5,49630.0
-48.19,229.12,975.76,10465.0,-5075.0,49857.5
-40.26,231.56,973.8,9292.5,-5722.5,48807.5
-32.45,233.75,971.73,9625.0,-8662.5,47670.0
-24.52,235.58,969.9,10710.0,-10850.0,47215.0
-15.98,237.29,968.19,10220.0,-9520.0,47722.5
-7.2,239.24,966.48,9205.0,-7927.5,48195.0
1.83,241.93,964.9,8680.0,-8120.0,47442.5
10.74,244.85,963.19,8855.0,-8890.0,46130.0
19.64,247.66,961.48,8802.5,-9205.0,44800.0
28.55,250.59,959.65,7997.5,-8855.0,44100.0
37.09,253.39,957.82,6667.5,-8470.0,42840.0
45.38,255.83,956.11,6265.0,-9240.0,41510.0
53.68,257.79,954.65,6370.0,-9765.0,40932.5
62.71,259.62,953.31,5670.0,-8767.5,40407.5
71.86,261.45,951.97,4567.5,-8417.5,38850.0
80.76,263.28,950.62,4812.5,-9817.5,37065.0
90.52,264.74,949.53,5372.5,-10990.0,36400.0
101.87,266.69,948.43,5967.5,-9765.0,36207.5
114.92,269.74,947.21,3745.0,-7647.5,34422.5
128.34,273.4,946.11,2345.0,-6335.0,29960.0
141.28,276.7,945.13,2240.0,-6755.0,24955.0
153.96,279.38,944.52,3010.0,-7805.0,20720.0
166.53,282.06,944.52,3622.5,-7350.0,17412.5
178.61,284.99,944.04,3360.0,-5337.5,14227.5
190.32,288.53,942.94,1260.0,-2905.0,10920.0
201.91,292.68,941.35,-1505.0,-1120.0,5967.5
212.52,296.58,939.64,-1890.0,-1645.0,-822.5
221.8,299.75,938.3,-630.0,-5040.0,-6860.0
229.6,301.83,937.2,-70.0,-6142.5,-11147.5
236.07,302.56,936.47,-630.0,-4375.0,-13422.5
241.32,302.8,935.62,-700.0,-2870.0,-14315.0
245.95,303.41,934.64,-595.0,-3185.0,-16450.0
250.83,304.63,933.3,-1435.0,-4007.5,-19635.0
255.83,306.1,931.84,-3552.5,-3832.5,-24150.0
260.1,307.2,931.23,-5932.5,-2835.0,-28857.5
262.67,307.44,931.1,-6650.0,-2607.5,-32252.5
263.64,307.07,931.59,-5600.0,-2957.5,-33845.0
263.52,306.95,932.08,-3955.0,-3080.0,-34230.0
263.03,306.95,931.96,-3815.0,-2555.0,-34772.5
262.3,307.07,931.47,-5810.0,-1662.5,-35857.5
261.81,306.95,931.47,-7612.5,-717.5,-37205.0
261.2,306.71,931.84,-7420.0,-227.5,-39200.0
259.86,306.46,932.08,-6160.0,-1050.0,-40652.5
258.27,306.46,931.47,-6020.0,-1102.5,-41737.5
256.44,306.59,930.62,-8347.5,857.5,-43207.5
254.25,306.34,930.13,-11445.0,2835.0,-45062.5
251.44,305.24,930.74,-12687.5,3412.5,-46795.0
247.9,303.29,932.08,-11322.5,3062.5,-48142.5
243.63,301.1,933.54,-9380.0,2765.0,-48562.5
238.39,299.02,934.28,-8557.5,3202.5,-48317.5
232.53,296.95,934.28,-9835.0,3657.5,-48055.0
226.55,294.75,934.03,-11235.0,2800.0,-47355.0
221.06,292.31,934.76,-11935.0,2817.5,-46742.5
216.18,290.24,936.23,-12040.0,4392.5,-46655.0
211.06,288.16,937.81,-12302.5,6142.5,-46882.5
205.2,285.85,939.52,-12670.0,6615.0,-47197.5
198.49,283.53,941.6,-11585.0,4742.5,-47687.5
191.05,280.6,943.79,-10307.5,3622.5,-47092.5
183.49,277.43,946.6,-9590.0,4410.0,-45045.0
176.05,274.74,949.53,-9030.0,6685.0,-42910.0
168.6,272.55,952.09,-8347.5,7612.5,-42105.0
160.8,270.35,953.8,-7542.5,5967.5,-41930.0
153.23,268.28,955.38,-6090.0,3657.5,-41090.0
146.28,266.2,957.09,-5145.0,3972.5,-39812.5
139.81,264.74,958.55,-5355.0,6142.5,-38657.5
133.47,263.89,959.41,-5792.5,6877.5,-38185.0
127.0,262.79,959.9,-6177.5,5967.5,-38237.5
120.29,261.57,960.63,-5705.0,4777.5,-38290.0
113.46,259.86,961.85,-4742.5,4200.0,-37310.0
106.99,258.27,962.82,-4060.0,4620.0,-35577.5
101.26,257.18,963.31,-3430.0,4585.0,-34510.0
96.14,256.69,963.07,-3587.5,4077.5,-34772.5
91.01,256.44,962.21,-4637.5,2712.5,-35927.5
85.52,255.96,961.73,-4690.0,157.5,-36837.5
79.91,255.22,961.73,-3815.0,-1365.0,-36907.5
73.93,254.13,961.97,-4760.0,-227.5,-36347.5
67.34,252.66,962.34,-6230.0,1225.0,-35787.5
60.15,250.71,963.31,-6580.0,910.0,-34895.0
52.22,248.15,964.78,-5950.0,87.5,-33372.5
43.92,245.22,966.97,-6002.5,910.0,-31832.5
34.53,242.05,969.66,-5547.5,1837.5,-29697.5
24.16,238.63,972.46,-4130.0,1382.5,-26582.5
13.42,235.22,974.9,-2012.5,-245.0,-22505.0
2.56,232.04,977.34,-787.5,-227.5,-17535.0
-8.17,228.99,979.66,-87.5,1242.5,-12600.0
-18.79,226.07,981.86,787.5,1732.5,-7560.0
-29.16,223.26,983.44,2135.0,997.5,-2485.0
-38.67,220.82,984.78,3237.5,612.5,2467.5
-47.34,218.75,985.76,4165.0,612.5,7280.0
-55.14,216.92,986.13,4672.5,402.5,11952.5
-62.1,215.45,986.37,5197.5,-297.5,16205.0
-67.95,214.48,986.49,5827.5,-1032.5,20265.0
-72.35,213.74,986.37,6422.5,-1120.0,24167.5
-75.27,213.5,986.0,6247.5,-332.5,27527.5
-77.1,213.74,985.39,6545.0,-717.5,30222.5
-77.59,214.35,984.54,7332.5,-2520.0,32112.5
-76.74,215.21,983.81,7962.5,-3815.0,34265.0
-74.42,216.55,983.08,7560.0,-2520.0,35752.5
-71.74,218.26,981.98,6860.0,-2625.0,35595.0
-69.3,219.72,980.51,7192.5,-5442.5,35280.0
-66.61,220.82,979.54,8277.5,-7525.0,36715.0
-63.2,221.8,979.05,7962.5,-5670.0,38605.0
-59.17,223.02,978.44,6877.5,-3675.0,40022.5
-54.66,224.6,977.71,7227.5,-4305.0,41107.5
-49.41,226.68,976.98,8032.5,-5110.0,41230.0
-43.92,228.87,976.0,7035.0,-4830.0,40250.0
-39.16,230.82,975.02,6615.0,-5757.5,39655.0
-34.53,232.04,974.29,7875.0,-7507.5,40635.0
-28.79,233.63,973.93,8522.5,-6352.5,42542.5
-21.47,235.83,973.44,7367.5,-3115.0,43575.0
-13.42,238.88,972.34,6037.5,-2047.5,41755.0
-6.34,241.8,971.12,6282.5,-4637.5,38412.5
-0.24,244.0,969.9,7420.0,-7455.0,36732.5
5.25,245.46,968.8,8365.0,-7717.5,37572.5
11.22,247.17,967.58,7945.0,-5845.0,39200.0
18.18,249.37,965.87,6615.0,-4165.0,39322.5
25.13,252.05,963.8,5180.0,-4620.0,37187.5
30.99,254.25,962.09,4585.0,-7000.0,34842.5
35.5,255.22,961.36,4917.5,-8505.0,34632.5
39.65,255.35,961.73,5915.0,-7717.5,37082.5
44.65,255.71,962.82,6562.5,-4707.5,39445.0
50.87,256.69,963.56,6527.5,-1977.5,40390.0
57.46,258.4,963.56,7700.0,-2800.0,39690.0
64.17,260.35,963.07,8627.5,-5040.0,38255.0
70.52,262.42,962.34,8277.5,-5040.0,36575.0
76.13,263.64,961.36,7962.5,-4427.5,35840.0
80.76,264.25,960.02,7455.0,-4690.0,35997.5
85.4,264.74,958.92,7507.5,-5320.0,36732.5
90.52,265.47,957.94,7455.0,-4602.5,37117.5
95.89,266.81,956.48,7490.0,-5250.0,36960.0
101.75,268.64,954.28,7805.0,-7157.5,35945.0
107.36,270.47,951.97,7175.0,-8050.0,34860.0
113.34,272.06,949.89,5827.5,-8015.0,34597.5
119.68,273.52,948.67,4900.0,-6965.0,34002.5
126.27,274.74,947.82,4182.5,-5652.5,33197.5
132.74,275.72,947.45,4462.5,-5442.5,33022.5
139.69,276.94,946.96,5355.0,-5932.5,32690.0
147.62,278.53,946.23,5722.5,-5932.5,31937.5
156.4,280.36,945.5,5197.5,-5530.0,30502.5
165.92,282.55,944.65,5057.5,-5407.5,27877.5
175.8,284.75,944.04,4480.0,-4480.0,24640.0
185.93,286.94,943.55,4287.5,-3885.0,21892.5
196.79,289.26,943.06,4935.0,-3710.0,19792.5
208.74,292.31,942.08,4830.0,-1942.5,17255.0
221.67,296.22,940.62,3552.5,-70.0,12530.0
234.61,300.12,938.3,2537.5,-105.0,5827.5
246.68,303.78,935.5,1242.5,-892.5,-1347.5
257.05,306.95,932.81,402.5,-1837.5,-8085.0
265.59,309.27,930.49,-787.5,-1627.5,-12950.0
272.3,311.1,928.42,-2765.0,385.0,-16205.0
277.67,312.32,926.96,-4690.0,1890.0,-19197.5
281.7,313.3,926.1,-5985.0,2642.5,-22032.5
284.63,313.66,925.98,-6317.5,2940.0,-24955.0
286.33,313.54,926.35,-5897.5,3255.0,-27282.5
286.94,313.3,926.83,-5635.0,3482.5,-29207.5
286.7,312.93,927.32,-6037.5,4515.0,-30695.0
285.6,312.32,927.69,-6597.5,5162.5,-32497.5
283.65,311.59,928.18,-6422.5,4287.5,-34212.5
280.84,310.37,928.42,-5722.5,3290.0,-35542.5
277.43,309.15,928.42,-5337.5,2905.0,-36172.5
273.77,308.29,927.69,-5267.5,2117.5,-36557.5
270.23,307.68,926.47,-6265.0,1767.5,-37240.0
266.81,307.2,925.61,-8837.5,3447.5,-37975.0
263.15,306.46,925.86,-10500.0,4882.5,-39217.5
258.88,305.24,926.47,-10045.0,4375.0,-40407.5
254.0,303.54,927.44,-9905.0,4112.5,-40950.0
248.51,301.71,928.3,-10010.0,3920.0,-41195.0
242.66,299.63,929.52,-10255.0,4025.0,-41020.0
236.56,297.44,930.98,-10710.0,4812.5,-40355.0
230.34,295.36,932.69,-11165.0,5617.5,-39987.5
224.11,293.29,934.64,-11217.5,5757.5,-39795.0
217.65,291.21,936.84,-9835.0,4795.0,-39707.5
211.43,289.14,938.79,-8312.5,4112.5,-39200.0
205.2,287.31,940.38,-7717.5,4305.0,-38745.0
198.86,285.72,941.6,-8015.0,4882.5,-38482.5
192.27,284.02,942.45,-7770.0,4130.0,-38500.0
185.68,282.31,943.3,-7402.5,3412.5,-37817.5
179.71,280.6,944.28,-8260.0,4462.5,-36890.0
173.97,279.01,945.5,-9660.0,5775.0,-36347.5
168.48,277.67,946.84,-9502.5,5565.0,-36155.0
163.11,276.45,948.31,-9117.5,4935.0,-36522.5
157.62,275.11,949.89,-9257.5,4672.5,-37065.0
151.77,273.28,951.72,-9327.5,5075.0,-37257.5
145.3,271.08,953.55,-8802.5,5390.0,-36470.0
138.23,268.77,955.5,-7682.5,5250.0,-35017.5
131.27,266.45,957.09,-6755.0,5110.0,-33302.5
124.56,264.5,958.19,-6282.5,4777.5,-32147.5
118.22,262.79,959.16,-6265.0,4217.5,-31692.5
112.0,261.45,960.14,-6002.5,3657.5,-31010.0
106.02,260.1,961.36,-5827.5,3972.5,-29907.5
100.28,258.88,962.21,-5652.5,4515.0,-28752.5
94.67,257.66,962.82,-5950.0,4812.5,-27965.0
89.06,256.32,963.43,-6072.5,4830.0,-27090.0
83.69,254.86,964.41,-6247.5,4987.5,-26145.0
78.2,253.52,965.26,-5617.5,4200.0,-25357.5
72.71,252.05,966.0,-4585.0,2642.5,-24955.0
67.1,250.34,966.61,-4480.0,2240.0,-24255.0
61.37,248.51,967.58,-5512.5,3570.0,-22960.0
55.14,246.68,968.92,-5460.0,4235.0,-21455.0
48.68,244.98,970.27,-4060.0,3167.5,-20072.5
41.97,243.15,971.12,-3045.0,1470.0,-18882.5
35.01,240.83,972.1,-3132.5,1102.5,-17710.0
27.08,238.27,973.56,-3272.5,1260.0,-16100.0
18.3,235.22,975.02,-2590.0,682.5,-13282.5
9.03,231.8,976.85,-1085.0,-840.0,-9170.0
-0.37,228.38,978.68,577.5,-1715.0,-4497.5
-9.52,225.09,980.64,1435.0,-910.0,385.0
-17.81,222.41,982.59,2502.5,-875.0,5320.0
-25.38,220.09,983.81,3990.0,-1592.5,9310.0
-32.21,218.01,984.66,4987.5,-2747.5,13125.0
-38.19,216.18,985.39,5565.0,-2782.5,17080.0
-43.07,214.72,986.0,5915.0,-2625.0,21087.5
-46.73,213.74,986.25,6527.5,-3202.5,24255.0
-49.29,213.01,986.13,6930.0,-4112.5,26635.0
-51.0,212.77,985.88,7595.0,-5145.0,28980.0
-51.73,212.89,985.52,8312.5,-5582.5,31412.5
-51.48,213.13,984.91,8295.0,-5320.0,33267.5
-50.63,213.62,983.81,7840.0,-5722.5,34737.5
-49.04,213.99,982.71,7770.0,-7157.5,36190.0
-46.36,214.72,982.1,7770.0,-7280.0,37975.0
-42.58,215.7,981.98,7630.0,-6422.5,39340.0
-38.06,216.92,982.1,8575.0,-6422.5,40215.0
-32.94,218.62,981.86,9292.5,-6580.0,40267.5
-27.45,219.97,981.49,8960.0,-6352.5,40232.5
-21.84,221.31,981.37,9047.5,-6160.0,40687.5
-15.49,222.65,981.37,9800.0,-5652.5,41142.5
-9.03,224.11,981.12,10290.0,-5162.5,41090.0
-2.44,225.94,980.39,10465.0,-4970.0,41265.0
4.27,228.02,979.42,10325.0,-5127.5,40915.0
10.98,230.21,978.2,10290.0,-5442.5,40162.5
17.57,232.41,976.98,10412.5,-6072.5,39550.0
24.03,234.48,975.76,10867.5,-6195.0,39672.5
30.74,237.05,974.54,11042.5,-5477.5,39480.0
37.33,239.61,972.83,11130.0,-5407.5,38920.0
43.92,242.05,970.75,10727.5,-5827.5,38220.0
50.26,244.73,968.8,10902.5,-6737.5,37520.0
56.85,247.29,966.73,10990.0,-7017.5,37380.0
63.93,250.1,964.65,10097.5,-6037.5,36872.5
70.88,252.91,962.58,8575.0,-5232.5,35752.5
77.59,255.47,960.63,7507.5,-5442.5,34685.0
84.42,258.03,959.16,7735.0,-6247.5,34090.0
91.62,260.59,958.19,7402.5,-5705.0,33512.5
99.19,263.28,957.21,7385.0,-5250.0,32690.0
107.12,266.2,955.99,7385.0,-5565.0,30852.5
115.17,268.89,955.02,6702.5,-4900.0,28805.0
122.85,271.33,954.16,6160.0,-3920.0,26792.5
130.05,273.77,953.19,6597.5,-4410.0,25182.5
137.49,276.09,951.84,6562.5,-4462.5,23677.5
144.94,278.65,950.5,5600.0,-3867.5,22032.5
152.5,281.33,949.4,4987.5,-3360.0,19862.5
160.06,284.26,948.06,5372.5,-3465.0,17815.0
168.24,287.31,946.23,5757.5,-3465.0,16240.0
177.39,290.85,943.79,4725.0,-3115.0,14542.5
187.76,295.0,941.11,3027.5,-2887.5,11270.0
198.86,299.51,938.67,2047.5,-2957.5,6072.5
210.08,304.02,935.86,1190.0,-2712.5,35.0
220.58,308.17,932.81,-595.0,-2607.5,-6475.0
229.48,311.59,930.13,-2660.0,-2730.0,-12250.0
236.92,314.03,927.69,-4812.5,-2170.0,-16800.0
242.9,315.98,925.86,-6387.5,-1575.0,-20125.0
248.15,317.32,924.52,-7962.5,-805.0,-23135.0
252.42,318.3,923.54,-9695.0,0.0,-26565.0
255.71,318.91,923.3,-10675.0,-192.5,-30170.0
257.79,318.66,923.78,-11025.0,-420.0,-33250.0
258.88,317.93,925.25,-11375.0,1067.5,-35332.5
259.13,316.59,926.83,-10937.5,2187.5,-36872.5
258.88,315.0,928.18,-9887.5,2380.0,-38115.0
258.4,313.91,928.91,-10080.0,3080.0,-39690.0
257.42,313.05,929.15,-11410.0,3937.5,-42402.5
255.22,311.59,929.15,-13702.5,4235.0,-45202.5
251.81,309.51,930.01,-15015.0,4095.0,-47232.5
247.29,306.95,931.59,-14805.0,4147.5,-48492.5
241.8,303.78,933.18,-13807.5,3657.5,-48965.0
235.95,300.49,934.89,-13440.0,4112.5,-48650.0
229.48,297.44,936.59,-13422.5,4917.5,-48632.5
222.53,294.26,937.94,-13527.5,4340.0,-48947.5
215.09,291.09,939.16,-13720.0,3342.5,-49122.5
207.52,287.55,940.86,-13545.0,2800.0,-48492.5
199.84,284.14,942.82,-13405.0,3832.5,-47127.5
192.27,280.84,945.13,-13422.5,5215.0,-45850.0
184.59,277.79,947.21,-12880.0,5232.5,-44520.0
177.39,274.87,949.16,-12215.0,4865.0,-43540.0
170.19,272.06,950.87,-11812.5,4585.0,-43207.5
162.99,269.13,952.45,-10937.5,3657.5,-42315.0
156.16,266.33,953.8,-10307.5,3062.5,-41457.5
149.57,263.64,955.26,-10867.5,4235.0,-40670.0
142.74,260.96,956.97,-10990.0,5407.5,-40092.5
135.18,257.66,958.92,-11042.5,7192.5,-38850.0
126.76,254.0,961.24,-10360.0,8172.5,-36662.5
117.61,250.1,963.56,-8837.5,8015.0,-33582.5
108.34,246.32,965.75,-6877.5,7332.5,-29697.5
100.16,243.15,967.83,-4970.0,6755.0,-25952.5
92.96,240.83,969.53,-3762.5,6527.5,-24097.5
86.5,239.0,970.75,-3500.0,5967.5,-23327.5
79.79,237.29,971.85,-3762.5,5652.5,-23012.5
72.71,235.22,973.07,-3692.5,5250.0,-22015.0
65.03,232.9,974.54,-2975.0,4707.5,-20545.0
56.97,230.34,975.76,-2345.0,4585.0,-18340.0
48.56,227.53,977.1,-2012.5,4462.5,-16275.0
39.65,224.6,978.68,-1417.5,3937.5,-13825.0
30.26,221.43,980.39,-367.5,3412.5,-10780.0
20.37,218.14,982.22,507.5,3325.0,-7367.5
10.25,214.84,983.81,1732.5,2467.5,-3150.0
0.24,211.67,985.39,3290.0,1365.0,2432.5
-8.78,209.11,986.74,4462.5,1452.5,7997.5
-16.47,207.16,987.47,5267.5,1242.5,12915.0
-22.33,206.18,987.71,6370.0,122.5,16765.0
-26.35,205.81,987.35,6667.5,-315.0,19267.5
-29.28,205.94,986.74,5967.5,-245.0,21000.0
-31.72,205.94,986.49,6090.0,-1277.5,22785.0
-33.67,205.69,986.49,6965.0,-2240.0,25060.0
-34.89,205.69,986.61,7612.5,-2275.0,27632.5
-35.14,206.06,986.74,7910.0,-1872.5,30082.5
-34.4,206.79,986.49,7735.0,-1575.0,31185.0
-33.67,207.52,986.13,8172.5,-2992.5,31220.0
-32.94,208.25,985.76,9292.5,-4847.5,32182.5
-31.96,208.86,985.52,9905.0,-5005.0,33932.5
-30.5,209.72,984.91,9835.0,-4287.5,36137.5
-27.94,211.06,984.05,9730.0,-4392.5,37415.0
-24.64,212.89,982.95,9975.0,-5250.0,37765.0
-20.86,214.84,981.98,9695.0,-5250.0,37922.5
-17.2,216.67,981.12,9257.5,-4672.5,38272.5
-13.66,218.14,980.64,9537.5,-4235.0,39777.5
-9.27,219.6,980.03,10500.0,-3622.5,41755.0
-4.15,221.67,979.05,10377.5,-2520.0,42525.0
1.71,224.36,977.59,10412.5,-3727.5,41422.5
7.32,227.16,975.76,10727.5,-6107.5,39602.5
12.44,229.6,973.8,10097.5,-6930.0,38657.5
17.93,231.56,972.46,9432.5,-5950.0,39935.0
24.28,233.75,971.36,8557.5,-3430.0,40915.0
30.99,236.44,970.27,7140.0,-1732.5,40495.0
37.33,239.0,969.29,6877.5,-2730.0,38727.5
42.7,241.07,968.44,8137.5,-5722.5,36767.5
47.34,242.66,967.7,8942.5,-6737.5,36452.5
52.09,244.0,966.97,8260.0,-4445.0,37852.5
57.83,245.71,966.0,6492.5,-1260.0,39270.0
64.05,247.9,964.78,5355.0,-367.5,38675.0
70.15,250.47,963.56,5215.0,-1487.5,36872.5
75.52,252.66,962.46,5897.5,-3412.5,35420.0
80.52,254.25,961.36,6790.0,-5110.0,35542.5
85.64,255.71,960.38,7105.0,-5442.5,35420.0
90.77,257.18,959.53,6772.5,-4882.5,35087.5
96.14,258.52,958.92,5722.5,-3045.0,34930.0
101.5,259.86,958.31,3500.0,542.5,34527.5
106.63,261.2,957.33,1487.5,2415.0,34230.0
111.51,262.06,956.85,52.5,3395.0,34772.5
117.61,262.79,957.21,910.0,5127.5,37817.5
126.27,264.62,957.82,1277.5,7910.0,40390.0
136.76,267.67,957.94,910.0,10272.5,37520.0
147.74,271.08,957.7,542.5,9975.0,30817.5
158.36,274.38,956.97,4392.5,2310.0,23905.0
168.97,277.79,955.75,9152.5,-4935.0,18130.0
180.32,281.82,954.28,9397.5,-4585.0,13475.0
192.03,286.46,952.09,5302.5,70.0,8470.0
202.76,290.85,949.4,1732.5,2345.0,2502.5
211.91,294.63,946.35,735.0,525.0,-3675.0
219.36,297.44,943.67,-192.5,-297.5,-8767.5
225.46,299.39,941.84,-1925.0,962.5,-12110.0
230.21,301.1,940.62,-2625.0,1575.0,-14420.0
234.24,302.56,939.64,-1995.0,997.5,-17150.0
237.78,304.27,938.79,-2712.5,787.5,-20807.5
240.46,305.49,938.18,-4620.0,1225.0,-24885.0
241.68,305.98,938.18,-5932.5,2537.5,-27685.0
241.8,305.73,938.55,-6422.5,3255.0,-29452.5
241.19,305.24,939.16,-6177.5,3587.5,-30800.0
240.1,304.39,939.64,-6825.0,4462.5,-32392.5
238.39,303.41,940.01,-6632.5,4217.5,-33705.0
236.19,302.56,940.13,-6090.0,3062.5,-35367.5
233.51,301.58,939.89,-6177.5,2327.5,-37432.5
230.09,300.73,939.4,-6877.5,1767.5,-39322.5
225.94,299.51,938.67,-7402.5,735.0,-40442.5
221.55,298.17,937.69,-8435.0,140.0,-41300.0
217.16,296.83,937.33,-10500.0,892.5,-42892.5
212.16,294.75,938.06,-13125.0,3010.0,-43820.0
206.67,291.7,940.01,-14980.0,5390.0,-42595.0
201.06,288.53,943.55,-15417.5,7525.0,-41440.0
195.69,285.48,947.82,-12600.0,7140.0,-41195.0
190.56,282.8,951.6,-8435.0,5407.5,-41650.0
185.07,280.23,954.28,-5547.5,3990.0,-42472.5
179.34,277.79,955.75,-4602.5,3062.5,-42927.5
173.73,275.35,956.48,-5775.0,4252.5,-42437.5
167.87,273.16,956.97,-7122.5,6142.5,-42035.0
161.53,271.08,956.97,-7070.0,5547.5,-42297.5
154.82,268.77,956.85,-7157.5,4567.5,-42122.5
147.62,266.2,957.09,-7542.5,4497.5,-41212.5
140.18,263.89,957.58,-7210.0,3850.0,-40215.0
132.74,261.81,958.19,-7350.0,3447.5,-39690.0
125.29,259.62,958.92,-7875.0,3675.0,-39357.5
117.61,257.3,959.65,-8680.0,3972.5,-38727.5
109.56,254.49,960.63,-9450.0,4567.5,-37135.0
101.63,251.81,962.34,-9152.5,5005.0,-34387.5
94.06,249.37,964.17,-8785.0,5950.0,-32707.5
86.62,247.17,966.0,-8067.5,5827.5,-31920.0
78.93,244.85,967.46,-6685.0,4550.0,-30660.0
71.61,242.66,968.31,-5757.5,3517.5,-28752.5
65.15,240.71,968.92,-5705.0,3990.0,-27072.5
59.05,238.88,969.66,-5985.0,4637.5,-26232.5
52.7,237.05,970.27,-5985.0,3850.0,-26145.0
45.38,234.61,971.0,-5320.0,1977.5,-25970.0
36.97,231.31,972.22,-4970.0,1172.5,-24482.5
27.57,227.41,973.93,-4235.0,1452.5,-21367.5
17.93,223.38,975.88,-3237.5,1942.5,-16712.5
8.3,219.72,977.59,-2030.0,1890.0,-12565.0
-1.22,216.18,979.17,-1715.0,1995.0,-8925.0
-10.98,212.77,981.0,-1050.0,1575.0,-5022.5
-20.86,209.35,982.95,805.0,52.5,-350.0
-30.26,205.94,984.66,2992.5,-997.5,5145.0
-38.55,202.76,985.88,4252.5,-1487.5,10552.5
-45.63,200.57,986.61,4515.0,-1610.0,14665.0
-51.73,198.74,987.22,5442.5,-2380.0,18270.0
-56.97,197.15,987.59,6615.0,-3202.5,22015.0
-60.88,196.05,987.47,7507.5,-4270.0,25970.0
-62.71,195.69,987.1,7752.5,-4112.5,29662.5
-62.34,196.42,986.61,7227.5,-2817.5,31500.0
-60.76,197.52,985.52,6632.5,-3150.0,31552.5
-59.05,198.62,984.54,6930.0,-5705.0,31342.5
-57.34,199.35,984.05,7770.0,-7262.5,32340.0
-55.27,199.84,983.81,8102.5,-6562.5,34510.0
-52.46,200.57,983.2,7892.5,-6352.5,36330.0
-49.29,201.67,982.47,7647.5,-7000.0,36697.5
-45.87,202.89,982.1,7630.0,-7822.5,36435.0
-42.58,203.98,982.1,8260.0,-8242.5,37747.5
-38.31,205.2,982.22,8540.0,-6895.0,40285.0
-32.57,207.16,982.1,8032.5,-5250.0,41125.0
-26.35,209.23,981.73,8155.0,-6002.5,40617.5
-19.64,211.55,981.61,9135.0,-6912.5,40267.5
-12.69,213.99,981.49,9695.0,-6475.0,39462.5
-5.73,216.31,981.12,9782.5,-5827.5,38867.5
1.1,218.62,980.03,9800.0,-5722.5,38080.0
7.93,220.94,978.81,10132.5,-6230.0,37992.5
15.37,223.75,977.1,10832.5,-6405.0,38307.5
23.42,227.16,974.78,9992.5,-5757.5,36995.0
31.48,230.95,972.22,8417.5,-6055.0,34475.0
38.67,234.24,970.14,7192.5,-6422.5,32077.5
45.14,236.8,968.68,6247.5,-6335.0,30712.5
51.24,239.0,967.95,6020.0,-5582.5,30782.5
57.34,241.32,967.22,6142.5,-5040.0,30240.0
63.32,243.63,966.61,5845.0,-4847.5,28892.5
68.44,245.71,966.0,5670.0,-5355.0,27475.0
72.71,247.29,965.63,6387.5,-6125.0,27090.0
77.1,248.64,965.39,6597.5,-5320.0,27930.0
81.98,249.98,965.14,6510.0,-3902.5,28997.5
87.96,251.93,964.65,6650.0,-3272.5,29172.5
94.55,254.49,964.04,6807.5,-3202.5,27825.0
101.14,257.18,963.56,6282.5,-2765.0,25672.5
107.24,259.62,962.7,6265.0,-3185.0,23485.0
112.73,261.57,961.73,7245.0,-4637.5,22050.0
118.34,263.28,960.51,8137.5,-4725.0,22225.0
124.56,265.23,958.68,7752.5,-3220.0,22470.0
131.52,268.16,956.48,6195.0,-2555.0,21105.0
138.96,271.57,954.28,5337.5,-3430.0,18637.5
147.13,275.48,952.09,3692.5,-3640.0,16117.5
156.16,279.62,950.38,1785.0,-3447.5,12775.0
165.92,283.53,949.16,1505.0,-3115.0,8610.0
175.68,287.19,948.31,997.5,-1750.0,4112.5
185.2,290.73,947.45,280.0,-280.0,-665.0
193.74,293.78,945.99,-630.0,87.5,-5477.5
201.18,296.46,944.4,-1785.0,-787.5,-10290.0
207.28,298.53,943.3,-2765.0,-1172.5,-14542.5
211.79,299.88,942.94,-2695.0,-1015.0,-17657.5
214.96,300.61,942.57,-3167.5,-105.0,-19845.0
217.16,301.1,942.45,-5250.0,2397.5,-21595.0
218.14,301.34,942.45,-5967.5,3272.5,-23415.0
218.01,301.1,942.33,-5372.5,1907.5,-25147.5
217.4,300.61,942.57,-5320.0,1715.0,-26425.0
216.43,300.0,943.18,-5757.5,2975.0,-27440.0
214.84,299.39,943.79,-5652.5,3885.0,-28105.0
213.13,298.66,944.04,-5512.5,3657.5,-28927.5
211.18,298.17,943.79,-6160.0,3447.5,-30152.5
208.99,297.44,943.79,-7052.5,3780.0,-31465.0
206.18,296.34,944.16,-7332.5,3972.5,-32410.0
202.76,295.24,944.65,-6825.0,3430.0,-32935.0
199.1,294.14,944.77,-6510.0,2712.5,-33425.0
195.44,292.8,944.65,-7297.5,3150.0,-33792.5
191.17,291.34,944.52,-8750.0,4130.0,-33740.0
186.42,289.75,944.77,-9572.5,4182.5,-33950.0
181.17,287.92,945.26,-9887.5,3430.0,-34037.5
175.8,285.97,945.99,-9292.5,2047.5,-33915.0
170.68,284.02,946.96,-8400.0,1277.5,-33757.5
165.92,282.31,947.7,-8907.5,2380.0,-33757.5
161.16,280.6,948.43,-10482.5,4147.5,-33495.0
156.4,278.65,949.4,-11532.5,4655.0,-32935.0
152.01,276.7,951.23,-11200.0,4340.0,-32742.5
147.62,274.74,953.19,-9905.0,3587.5,-33075.0
143.23,272.79,954.89,-8715.0,2975.0,-33057.5
139.08,270.72,956.24,-8347.5,3360.0,-32620.0
135.05,268.89,957.58,-9065.0,4690.0,-32480.0
131.03,267.06,959.04,-8925.0,4655.0,-32830.0
126.76,264.98,960.63,-8557.5,4690.0,-33040.0
122.49,262.79,962.46,-8417.5,5740.0,-32690.0
117.85,260.47,964.29,-8330.0,6457.5,-32392.5
112.97,258.15,966.0,-7927.5,6422.5,-32235.0
107.85,255.71,967.34,-7087.5,6142.5,-31727.5
102.6,253.52,968.44,-6037.5,5775.0,-31220.0
97.36,251.44,969.17,-5477.5,5302.5,-30555.0
92.23,249.49,969.66,-5722.5,5425.0,-30432.5
86.62,247.42,970.02,-5740.0,5390.0,-30135.0
80.64,244.98,970.63,-5407.5,5337.5,-29417.5
74.3,242.54,971.61,-4445.0,5845.0,-28175.0
67.71,239.97,972.58,-4532.5,6247.5,-26845.0
60.63,237.17,973.56,-4952.5,5932.5,-25497.5
53.19,234.48,975.02,-4095.0,5547.5,-24027.5
45.38,231.43,976.73,-2607.5,4497.5,-22137.5
37.33,228.38,978.32,-2030.0,4235.0,-19932.5
29.04,225.33,980.27,-1960.0,5075.0,-17517.5
19.89,221.8,982.34,-630.0,4987.5,-14840.0
10.25,218.38,984.05,1242.5,3780.0,-11602.5
0.12,214.96,985.39,2975.0,2275.0,-8172.5
-10.25,211.79,986.25,4532.5,910.0,-4007.5
-20.5,208.74,986.61,5547.5,-245.0,1242.5
-29.89,206.06,986.98,5967.5,-157.5,6895.0
-37.94,203.98,987.22,5932.5,962.5,12145.0
-44.65,202.64,987.1,6055.0,1225.0,16257.5
-50.26,201.79,986.61,6335.0,-122.5,19267.5
-54.78,201.3,986.37,6492.5,-980.0,21892.5
-58.68,200.81,986.13,6807.5,-1767.5,24622.5
-61.49,200.45,986.0,7892.5,-3045.0,27895.0
-62.71,200.57,985.76,8645.0,-3150.0,30887.5
-62.71,201.3,985.39,8435.0,-2625.0,32707.5
-61.98,202.15,984.66,8207.5,-3255.0,33635.0
-60.76,203.25,983.93,8032.5,-4567.5,34195.0
-59.41,204.11,983.56,7997.5,-5005.0,35280.0
-57.83,204.84,983.32,8505.0,-5075.0,36960.0
-55.88,205.69,983.08,9135.0,-5162.5,38902.5
-53.07,207.03,982.59,9677.5,-4725.0,40950.0
-49.78,208.5,981.98,9135.0,-2887.5,42945.0
-46.12,210.08,981.49,7665.0,420.0,45377.5
-42.09,211.79,980.64,7385.0,1207.5,47040.0
-37.58,213.99,979.54,8487.5,-1557.5,47180.0
-32.33,216.18,978.56,9415.0,-4637.5,45972.5
-26.96,217.89,978.2,8890.0,-4497.5,45132.5
-21.59,219.36,978.32,9047.5,-3482.5,45377.5
-16.47,220.94,978.07,10360.0,-3605.0,46217.5
-10.98,222.65,977.46,10990.0,-3990.0,46970.0
-4.88,224.72,976.73,11392.5,-4480.0,46882.5
1.59,227.04,975.88,11795.0,-5285.0,45710.0
8.05,229.36,974.78,11165.0,-4585.0,44502.5
14.15,231.31,973.56,10220.0,-4130.0,43627.5
19.89,233.26,972.34,9870.0,-4357.5,43715.0
25.74,235.22,971.12,10290.0,-4830.0,43802.5
32.21,237.66,969.9,11130.0,-5687.5,43942.5
39.04,240.58,968.68,11620.0,-5337.5,43365.0
45.99,243.76,966.61,11165.0,-5477.5,41930.0
52.95,246.81,964.29,11077.5,-7000.0,40810.0
60.63,249.73,962.09,10587.5,-7017.5,40985.0
69.78,253.15,960.75,9957.5,-4655.0,41580.0
80.15,257.66,959.53,9030.0,-2082.5,40530.0
91.26,262.67,957.94,8540.0,-1680.0,37117.5
102.48,267.67,955.87,9240.0,-4480.0,32305.0
113.58,272.06,953.92,9590.0,-6037.5,27807.5
124.32,276.21,952.33,9712.5,-5040.0,24640.0
134.69,280.11,950.38,10972.5,-4112.5,22015.0
144.81,284.14,948.31,11672.5,-3605.0,18882.5
154.57,288.04,946.72,11865.0,-4707.5,15242.5
164.21,291.82,945.74,14297.5,-6790.0,12460.0
174.09,296.46,944.16,15225.0,-7105.0,9362.5
183.85,301.22,941.84,12985.0,-5687.5,5267.5
192.64,305.37,940.86,11462.5,-3045.0,-525.0
200.2,309.15,940.74,14997.5,-2817.5,-3675.0
206.91,312.56,939.77,15855.0,-1802.5,-6335.0
212.65,315.98,937.45,11532.5,1487.5,-9275.0
217.4,319.76,934.76,6370.0,3325.0,-11987.5
221.06,323.79,932.57,4952.5,2345.0,-15242.5
223.75,327.33,931.1,6895.0,-175.0,-19670.0
225.33,330.38,929.4,9607.5,-2152.5,-23310.0
225.82,332.82,926.71,9852.5,-2310.0,-25532.5
225.46,335.01,923.17,6282.5,-1207.5,-26687.5
224.36,336.72,919.15,367.5,420.0,-27370.0
222.77,338.06,915.73,-6072.5,2100.0,-27335.0
221.31,339.53,914.02,-12127.5,4217.5,-27370.0
219.72,341.11,914.02,-15137.5,4690.0,-29260.0
217.4,341.97,915.37,-13492.5,2257.5,-31535.0
214.48,342.09,916.95,-10640.0,-332.5,-32602.5
211.55,341.72,918.29,-9502.5,-857.5,-32935.0
208.62,341.36,919.51,-10080.0,560.0,-33442.5
205.33,340.87,920.73,-11217.5,1715.0,-34160.0
201.42,340.01,921.95,-11900.0,2660.0,-34457.5
197.4,339.16,923.17,-11655.0,2712.5,-34580.0
193.13,338.31,924.52,-10080.0,1295.0,-35105.0
188.73,337.45,925.74,-8960.0,472.5,-35840.0
183.85,336.35,926.83,-8277.5,-192.5,-36155.0
178.73,334.89,927.93,-8540.0,840.0,-35402.5
173.73,333.18,929.64,-9450.0,2782.5,-34265.0
168.6,331.6,931.59,-9152.5,3447.5,-33810.0
163.24,330.13,933.54,-8120.0,2870.0,-33827.5
157.75,328.67,935.25,-7175.0,2782.5,-33792.5
151.89,326.96,936.96,-6545.0,2380.0,-33355.0
146.03,325.25,938.3,-6317.5,2205.0,-32672.5
140.06,323.67,939.28,-6965.0,2765.0,-31867.5
133.96,322.2,939.64,-6965.0,1890.0,-31500.0
127.61,320.86,939.4,-6597.5,-472.5,-31272.5
121.27,319.03,939.4,-7665.0,-525.0,-30327.5
115.29,317.08,940.62,-9030.0,2537.5,-28315.0
109.56,315.25,942.45,-8330.0,4200.0,-26617.5
104.19,314.03,944.28,-6107.5,2362.5,-25865.0
99.55,313.17,945.87,-4147.5,665.0,-25340.0
95.4,312.32,947.21,-4375.0,1960.0,-24902.5
91.62,311.59,948.43,-5005.0,2835.0,-24815.0
87.72,310.86,950.14,-4515.0,2537.5,-25235.0
83.2,309.51,952.45,-2695.0,1750.0,-25952.5
77.84,307.56,955.02,-857.5,2467.5,-25462.5
71.49,305.24,957.21,-210.0,4287.5,-23730.0
64.42,303.17,959.04,122.5,4900.0,-21490.0
56.61,301.1,960.51,1470.0,4235.0,-19705.0
48.56,298.9,961.97,3272.5,3535.0,-17955.0
39.77,296.34,964.04,6842.5,2117.5,-16450.0
30.01,293.17,966.73,12705.0,3307.5,-11287.5
20.5,290.48,969.78,17605.0,6405.0,-4270.0
11.71,289.38,971.36,19145.0,9205.0,700.0
3.9,289.75,971.36,17815.0,8837.5,2730.0
-3.54,290.36,970.51,16957.5,6755.0,4725.0
-10.37,291.09,969.41,15925.0,5880.0,7420.0
-16.47,292.19,967.83,15417.5,6072.5,10465.0
-21.35,293.78,965.63,15662.5,5337.5,13160.0
-25.01,295.73,962.7,14490.0,4637.5,15610.0
-27.57,298.05,959.41,11410.0,3990.0,17045.0
-29.28,300.73,956.24,8557.5,2152.5,17517.5
-30.74,303.66,953.55,7595.0,-367.5,17710.0
-31.72,305.98,951.36,6597.5,-1487.5,18847.5
-32.45,308.42,949.53,6072.5,-1942.5,20440.0
-32.94,310.61,948.18,4550.0,-2117.5,21175.0
-32.57,312.44,947.7,4095.0,-2730.0,22277.5
-31.84,314.27,948.06,5862.5,-3307.5,22977.5
-31.11,316.1,948.67,8400.0,-4077.5,23747.5
-30.26,317.93,949.04,9310.0,-3482.5,24342.5
-29.77,319.64,949.28,9887.5,-2100.0,25042.5
-29.77,320.98,949.4,11357.5,-2397.5,26670.0
-29.89,322.32,949.28,14455.0,-4427.5,28280.0
-29.28,324.03,948.67,17465.0,-5810.0,29785.0
-27.57,325.98,947.33,17010.0,-3832.5,31482.5
-25.01,328.42,945.99,14350.0,-752.5,33197.5
-21.11,331.72,945.26,15085.0,52.5,33285.0
-15.98,335.5,944.52,17045.0,1102.5,31657.5
-10.49,339.4,943.06,18060.0,1190.0,29907.5
-5.73,342.45,940.62,16467.5,2187.5,30275.0
-1.22,345.26,938.18,14122.5,2415.0,32077.5
3.78,348.31,936.23,13195.0,2415.0,32830.0
9.64,351.6,935.01,13772.5,2310.0,31587.5
15.37,354.9,934.28,15505.0,2590.0,28997.5
20.25,357.7,933.06,16922.5,3465.0,28665.0
24.89,360.75,930.98,15715.0,4270.0,30817.5
30.01,364.41,928.66,13195.0,4375.0,31552.5
35.62,368.44,926.59,11130.0,3622.5,29662.5
41.24,372.22,925.0,9922.5,3220.0,26040.0
46.73,375.64,923.54,8662.5,3762.5,23082.5
51.97,378.93,922.2,8627.5,3727.5,23012.5
57.46,382.35,920.61,10115.0,2817.5,24832.5
63.93,386.5,918.17,11287.5,1207.5,26932.5
72.47,391.62,915.24,9870.0,1470.0,27965.0
83.08,397.84,912.32,7997.5,1767.5,25322.5
94.79,404.19,910.0,7262.5,1767.5,19845.0
105.9,409.68,907.92,7332.5,1697.5,15050.0
116.27,414.8,905.73,7017.5,2240.0,11795.0
125.9,419.8,902.8,5897.5,2397.5,8610.0
135.05,424.8,899.51,4987.5,1627.5,4742.5
143.23,429.68,896.09,4777.5,192.5,262.5
150.06,434.08,892.8,5320.0,-1820.0,-4287.5
155.31,437.74,889.01,3062.5,-1557.5,-7770.0
158.6,440.79,885.35,-1382.5,-262.5,-10097.5
159.94,443.1,882.3,-4287.5,-560.0,-11847.5
160.31,444.57,880.6,-5792.5,-927.5,-12670.0
160.31,445.67,880.35,-5127.5,-805.0,-13265.0
160.06,446.76,880.72,-2940.0,-1855.0,-13545.0
160.55,448.47,880.6,-2012.5,-2450.0,-14735.0
161.53,450.42,880.11,-4182.5,-1137.5,-17202.5
161.77,452.01,879.99,-6545.0,-122.5,-19442.5
161.53,452.86,880.35,-7840.0,367.5,-20737.5
161.04,453.23,881.08,-7717.5,262.5,-21840.0
160.19,453.35,881.57,-7595.0,0.0,-23135.0
159.09,453.35,881.69,-7525.0,-1067.5,-24780.0
157.87,453.11,881.69,-6405.0,-2835.0,-26232.5
156.53,452.86,881.21,-6545.0,-3290.0,-27597.5
155.06,452.74,880.6,-9152.5,-2275.0,-28962.5
153.11,452.5,880.11,-11655.0,-1575.0,-30555.0
150.3,451.77,880.23,-12775.0,-1960.0,-32165.0
146.16,450.18,881.08,-11620.0,-3132.5,-33057.5
140.91,447.74,882.3,-11147.5,-3132.5,-32637.5
135.42,444.81,883.65,-13282.5,-2187.5,-31255.0
130.3,442.13,885.23,-15610.0,-2152.5,-30135.0
125.42,439.93,887.18,-17272.5,-3395.0,-29977.5
120.78,437.74,890.36,-17412.5,-4252.5,-30345.0
116.51,435.42,895.36,-12757.5,-4322.5,-31080.0
112.36,432.86,900.73,-6317.5,-1977.5,-31220.0
107.85,430.05,904.26,-3762.5,822.5,-30117.5
103.46,427.73,905.85,-4410.0,1872.5,-29347.5
99.06,425.66,906.46,-5127.5,1155.0,-29505.0
94.55,423.83,906.7,-5600.0,-227.5,-29785.0
90.04,421.75,907.07,-5705.0,-507.5,-29312.5
86.01,419.92,907.68,-4672.5,-210.0,-29295.0
82.23,418.22,908.29,-3692.5,297.5,-29802.5
77.96,416.51,908.41,-5005.0,1102.5,-29890.0
73.57,414.68,908.9,-6947.5,1522.5,-29610.0
69.17,412.85,910.12,-7105.0,1050.0,-29592.5
64.66,410.9,911.83,-5635.0,472.5,-29820.0
59.54,408.7,913.66,-3605.0,-52.5,-29662.5
53.92,406.38,915.0,-2240.0,507.5,-28595.0
48.07,404.06,916.1,-2835.0,1995.0,-27335.0
41.97,401.62,916.83,-4077.5,2590.0,-26705.0
35.14,398.94,917.93,-3797.5,1435.0,-25777.5
27.82,396.01,919.64,-1907.5,210.0,-24500.0
20.01,393.08,921.34,-822.5,700.0,-22417.5
12.08,390.4,922.81,-857.5,2100.0,-19757.5
3.9,387.96,924.03,-665.0,2380.0,-17552.5
-4.64,385.4,924.76,-140.0,1610.0,-15540.0
-13.66,382.71,925.49,157.5,1050.0,-13107.5
-23.18,379.66,926.71,175.0,1942.5,-9817.5
-32.82,376.61,928.05,962.5,2590.0,-5670.0
-42.21,373.81,928.91,1855.0,2047.5,-1417.5
-50.87,371.37,929.64,3150.0,927.5,2485.0
-58.32,369.54,930.01,3657.5,1312.5,6160.0
-64.9,368.32,929.76,3272.5,2345.0,9502.5
-70.88,367.46,929.03,3290.0,1452.5,12320.0
-76.01,366.49,927.93,3342.5,17.5,14892.5
-80.03,365.51,927.08,2887.5,350.0,17675.0
-83.08,364.78,926.71,2747.5,630.0,20615.0
-84.67,364.54,926.35,3605.0,-52.5,23082.5
-84.91,365.02,926.1,3150.0,700.0,24675.0
-84.18,365.76,925.86,2397.5,1225.0,25410.0
-83.2,366.49,925.61,3097.5,-315.0,25567.5
-82.59,366.73,925.49,3692.5,-1680.0,26372.5
-82.11,366.49,925.74,3027.5,-980.0,28227.5
-81.25,366.24,926.71,3867.5,-735.0,30450.0
-79.91,366.37,927.44,6230.0,-1540.0,32095.0
-77.84,366.98,927.57,7210.0,-2345.0,33110.0
-75.64,367.71,927.32,6212.5,-1487.5,34055.0
-73.44,368.32,926.96,6107.5,-927.5,34930.0
-71.13,368.81,926.47,6562.5,-1750.0,36505.0
-67.83,369.54,925.86,6510.0,-1995.0,38010.0
-63.44,370.64,925.49,6107.5,-647.5,38570.0
-58.56,372.1,925.0,5862.5,-192.5,38797.5
-53.56,373.44,924.52,5950.0,-385.0,38762.5
-48.31,374.78,924.15,6317.5,-472.5,38745.0
-43.07,376.0,923.54,7367.5,-1155.0,39042.5
-37.45,377.22,922.69,7332.5,-1365.0,39375.0
-31.48,378.32,921.59,6947.5,-927.5,39462.5
-25.38,379.42,920.86,6037.5,507.5,39725.0
-19.28,380.88,919.88,5827.5,612.5,39480.0
-13.18,382.23,918.9,6405.0,-1032.5,39235.0
-6.83,383.69,918.05,6580.0,-1347.5,38902.5
-0.12,385.4,917.44,6685.0,-840.0,38762.5
6.83,387.35,916.59,7245.0,-1067.5,38132.5
14.27,389.55,915.49,6982.5,-927.5,36995.0
21.72,391.74,914.27,5705.0,87.5,35927.5
29.04,393.69,913.29,5355.0,367.5,34930.0
36.11,395.4,912.44,6475.0,-665.0,34247.5
43.43,397.35,911.46,7227.5,-1400.0,33565.0
51.24,399.67,909.75,7297.5,-1802.5,32812.5
60.15,402.48,907.56,7332.5,-2835.0,31500.0
70.27,406.02,905.0,6422.5,-3010.0,29295.0
80.76,409.55,902.31,4637.5,-2555.0,27387.5
91.99,413.34,899.99,1872.5,-157.5,26337.5
104.07,417.73,898.04,-665.0,2362.5,21682.5
115.66,421.63,896.21,-1190.0,910.0,15312.5
126.03,424.8,894.75,210.0,-2852.5,9870.0
135.42,427.24,893.89,805.0,-3237.5,6055.0
143.96,429.44,893.28,245.0,-1295.0,3342.5
151.65,431.51,892.31,-280.0,-752.5,665.0
158.84,433.83,891.09,-770.0,-1365.0,-2922.5
164.94,436.03,889.75,-1592.5,-2257.5,-6825.0
169.95,437.74,888.77,-2800.0,-2747.5,-10010.0
173.97,438.59,888.4,-3920.0,-1522.5,-12337.5
176.9,439.08,888.65,-3885.0,-525.0,-13930.0
178.97,439.44,889.01,-3570.0,-245.0,-15575.0
180.19,439.44,889.26,-3465.0,-822.5,-17412.5
180.44,439.2,889.75,-4025.0,-1015.0,-18812.5
180.19,438.71,890.48,-3447.5,-997.5,-19582.5
179.71,438.35,891.09,-3290.0,-315.0,-20440.0
178.97,437.86,891.45,-3062.5,-630.0,-21612.5
177.88,437.37,891.58,-3150.0,-892.5,-22697.5
176.41,436.88,891.94,-4777.5,682.5,-23835.0
174.22,436.03,892.67,-4812.5,840.0,-24465.0
171.65,434.81,893.16,-3937.5,-280.0,-24570.0
169.21,433.83,893.65,-3237.5,-875.0,-25007.5
166.65,432.98,893.77,-3675.0,-420.0,-25567.5
163.97,432.12,893.89,-4917.5,385.0,-26110.0
160.8,431.15,894.26,-4445.0,-472.5,-26617.5
157.75,430.17,894.75,-3990.0,-787.5,-26670.0
154.7,429.32,895.11,-4602.5,227.5,-26845.0
151.77,428.71,895.48,-4707.5,-122.5,-27090.0
149.08,428.22,895.48,-4585.0,-1225.0,-28000.0
146.28,427.61,895.97,-5215.0,-1382.5,-29137.5
143.23,426.88,896.46,-5670.0,-875.0,-29785.0
139.81,426.02,896.7,-5600.0,-840.0,-30082.5
136.15,425.05,896.7,-5617.5,-1260.0,-30537.5
132.25,423.83,896.94,-6545.0,-787.5,-30730.0
128.59,422.24,897.8,-7647.5,630.0,-30520.0
124.93,420.78,899.51,-8522.5,2345.0,-30852.5
120.9,418.95,901.82,-8452.5,2782.5,-31202.5
116.27,417.12,904.26,-7000.0,1977.5,-30992.5
111.75,415.29,906.83,-5407.5,1942.5,-30397.5
107.24,413.7,909.14,-4760.0,3010.0,-29995.0
102.48,412.24,910.61,-3920.0,2747.5,-30065.0
97.48,410.65,911.58,-3010.0,1610.0,-29960.0
92.72,409.31,912.19,-3255.0,2450.0,-29610.0
87.96,407.97,912.44,-3902.5,3325.0,-29837.5
82.59,406.5,912.56,-4060.0,2730.0,-29907.5
76.86,404.67,912.8,-4025.0,2572.5,-29382.5
71.0,402.97,913.17,-3430.0,2747.5,-28507.5
65.15,401.62,913.29,-3255.0,2187.5,-27842.5
59.54,400.16,913.05,-3867.5,1312.5,-27405.0
54.05,398.94,913.41,-4847.5,1592.5,-27020.0
48.68,397.72,914.39,-5372.5,2677.5,-26722.5
43.07,396.26,915.37,-4725.0,2625.0,-26075.0
37.33,394.55,916.22,-4480.0,2432.5,-25340.0
31.48,392.96,916.83,-3937.5,1435.0,-24255.0
26.11,391.38,917.32,-3150.0,997.5,-23257.5
21.11,390.16,917.68,-3307.5,1417.5,-22610.0
15.98,388.81,918.17,-3657.5,1522.5,-22102.5
10.74,387.35,918.66,-3360.0,1137.5,-21210.0
5.37,385.76,919.39,-3325.0,1032.5,-20230.0
0.24,384.06,920.37,-3377.5,1277.5,-19460.0
-5.12,382.59,921.83,-2782.5,1347.5,-18637.5
-10.86,380.88,923.05,-1995.0,1225.0,-17482.5
-17.08,379.05,924.03,-1907.5,1190.0,-16257.5
-24.03,376.98,924.76,-1767.5,560.0,-14717.5
-31.48,374.66,925.49,-1085.0,-122.5,-12530.0
-39.28,372.1,926.35,-577.5,-350.0,-10097.5
-47.09,369.54,927.08,-665.0,245.0,-7385.0
-55.39,366.98,927.69,-1312.5,1207.5,-4532.5
-64.17,364.29,928.42,-717.5,630.0,-595.0
-72.47,361.73,929.15,455.0,-542.5,3500.0
-79.54,359.66,930.01,1260.0,-612.5,7595.0
-85.28,357.95,930.74,1995.0,437.5,11497.5
-89.79,356.85,931.1,2117.5,735.0,14227.5
-92.96,356.24,930.86,2415.0,-332.5,16012.5
-95.4,355.63,930.49,2590.0,-1417.5,17727.5
-97.36,355.02,930.37,2677.5,-1627.5,19740.0
-98.33,354.41,930.49,2607.5,-1365.0,21682.5
-98.7,354.04,931.1,2992.5,-1190.0,23730.0
-97.6,354.29,931.71,4340.0,-1137.5,25480.0
-95.28,355.26,931.71,4690.0,-1050.0,25777.5
-92.48,356.48,931.1,4182.5,-1522.5,25480.0
-89.67,357.46,930.62,3395.0,-1837.5,25375.0
-87.35,357.95,930.25,3167.5,-2327.5,25882.5
-85.16,358.19,930.37,3255.0,-2415.0,26967.5
-82.47,358.31,930.98,3762.5,-1750.0,28700.0
-78.81,359.17,931.35,4620.0,-1050.0,29592.5
-74.3,360.75,931.23,5390.0,-1575.0,29330.0
-69.3,362.83,930.49,5232.5,-2082.5,28227.5
-64.66,364.54,929.64,4585.0,-1855.0,27405.0
-60.02,366.24,928.91,4637.5,-1872.5,27720.0
-55.27,367.83,927.81,4830.0,-1855.0,27580.0
-50.26,369.42,926.59,3780.0,-1295.0,27020.0
-45.63,371.12,925.25,3045.0,-1697.5,26285.0
-41.11,372.47,924.27,2835.0,-2292.5,26180.0
-36.6,373.93,923.78,2730.0,-2135.0,25882.5
-32.09,375.27,923.66,2642.5,-1365.0,25690.0
-27.57,376.86,923.42,3132.5,-1662.5,25375.0
-23.3,378.32,923.05,3237.5,-2135.0,24710.0
-19.28,379.54,922.69,2800.0,-1977.5,24272.5
-15.86,380.27,922.56,2782.5,-1785.0,24325.0
-12.93,380.76,922.56,3167.5,-2170.0,24692.5
-10.0,381.13,922.81,3745.0,-2502.5,25777.5
-6.1,381.86,923.17,3972.5,-1067.5,26442.5
-1.83,383.08,923.05,3797.5,-420.0,25830.0
1.83,384.3,922.56,3832.5,-1522.5,24920.0
5.0,385.03,922.08,3867.5,-1907.5,24955.0
7.81,385.52,921.83,3832.5,-1365.0,25847.5
10.74,385.76,921.34,4235.0,-1662.5,26652.5
14.52,386.25,920.86,4620.0,-2012.5,26792.5
18.79,386.98,920.37,4270.0,-1295.0,26740.0
23.18,387.96,919.76,4445.0,-927.5,26985.0
27.82,389.18,918.78,4025.0,-735.0,26477.5
32.33,390.52,917.68,3290.0,-1207.5,25550.0
36.84,391.5,916.95,3255.0,-1820.0,25357.5
41.24,392.23,916.59,3342.5,-1732.5,25147.5
45.75,392.96,916.22,3342.5,-1365.0,25025.0
50.51,393.82,915.85,3622.5,-1190.0,24727.5
55.39,394.79,915.24,3307.5,-1102.5,24167.5
60.15,395.89,914.51,3115.0,-1802.5,23065.0
64.9,396.74,913.78,3430.0,-3237.5,22697.5
70.39,397.72,913.29,3027.5,-2555.0,22312.5
76.13,398.94,912.93,2117.5,-787.5,20947.5
81.5,400.16,912.32,2012.5,-1365.0,19372.5
86.62,401.01,911.83,2397.5,-2327.5,18655.0
92.6,402.11,911.71,2590.0,-1260.0,18655.0
99.67,403.94,911.46,3027.5,-455.0,17850.0
107.48,406.26,910.61,3447.5,-997.5,16765.0
116.27,409.19,909.63,3272.5,-1067.5,13930.0
125.78,412.36,907.92,3150.0,-1155.0,9765.0
135.42,415.65,905.73,2205.0,-1767.5,5267.5
144.45,418.7,903.53,245.0,-1242.5,682.5
152.5,421.14,901.82,-1102.5,-857.5,-3710.0
159.33,423.22,900.24,-1750.0,-1330.0,-7262.5
165.19,424.8,898.65,-2835.0,-1802.5,-10640.0
170.19,426.02,897.55,-4130.0,-2152.5,-14227.5
173.97,426.76,897.07,-5127.5,-1995.0,-17080.0
176.53,426.88,897.19,-5582.5,-1557.5,-19075.0
178.12,426.76,897.8,-4865.0,-1767.5,-20842.5
178.73,426.15,898.53,-4235.0,-1627.5,-22505.0
178.61,425.17,899.51,-4742.5,-70.0,-23520.0
177.51,423.95,900.6,-4812.5,595.0,-24062.5
175.92,422.73,901.82,-3990.0,297.5,-24535.0
174.22,421.75,902.8,-3832.5,560.0,-25305.0
172.14,420.78,903.78,-4007.5,892.5,-26302.5
169.09,419.56,904.51,-3587.5,612.5,-26950.0
165.68,418.22,905.12,-3010.0,402.5,-26565.0
162.63,417.0,905.48,-3290.0,1575.0,-26302.5
159.82,416.02,905.61,-4287.5,3290.0,-26862.5
156.4,415.04,905.73,-5390.0,4270.0,-27160.0
152.74,413.95,906.09,-5792.5,4847.5,-27282.5
148.84,412.85,906.46,-5390.0,4235.0,-27860.0
144.45,411.38,906.95,-5197.5,2940.0,-28385.0
139.81,409.68,907.68,-4917.5,1487.5,-28875.0
134.69,407.72,909.14,-4077.5,962.5,-28577.5
129.32,406.02,910.61,-3640.0,1662.5,-27580.0
123.95,404.55,911.58,-3482.5,2047.5,-26687.5
118.83,403.33,912.32,-3412.5,1925.0,-26267.5
113.95,402.23,912.68,-3325.0,1610.0,-26302.5
108.7,401.14,912.8,-3220.0,1155.0,-25935.0
103.7,399.92,912.8,-3587.5,1085.0,-25287.5
98.94,398.7,912.8,-3972.5,1050.0,-24972.5
94.18,397.48,912.93,-4410.0,980.0,-24762.5
89.18,396.38,913.05,-4620.0,665.0,-24237.5
84.42,395.28,913.29,-5127.5,700.0,-23450.0
80.4,394.06,914.02,-6247.5,2012.5,-22732.5
76.62,393.08,915.12,-6142.5,2467.5,-22802.5
72.96,392.35,916.22,-4375.0,1365.0,-22382.5
69.91,391.99,917.2,-3745.0,997.5,-22522.5
67.22,391.62,917.93,-4200.0,1610.0,-23205.0
64.42,391.13,918.54,-4357.5,1540.0,-23782.5
61.24,390.4,919.39,-4322.5,1242.5,-24395.0
57.71,389.06,920.61,-4060.0,1627.5,-24482.5
53.92,387.72,921.83,-3290.0,1942.5,-24045.0
49.65,386.37,922.81,-3115.0,1995.0,-23800.0
45.02,384.91,923.54,-2642.5,1207.5,-23362.5
40.26,383.45,924.27,-2362.5,1137.5,-22750.0
35.38,381.98,924.88,-2572.5,1750.0,-22172.5
30.01,380.52,925.25,-2642.5,1487.5,-21595.0
23.91,378.69,925.49,-3062.5,1050.0,-20877.5
17.32,376.61,926.1,-3097.5,700.0,-19547.5
10.49,374.3,927.2,-2450.0,910.0,-17640.0
3.54,372.1,928.3,-2310.0,1610.0,-16012.5
-4.15,369.78,929.27,-2135.0,1522.5,-14507.5
-12.44,367.34,930.37,-1557.5,787.5,-11917.5
-21.35,364.66,931.59,-910.0,717.5,-8347.5
-30.13,361.73,932.69,-280.0,455.0,-4672.5
-38.55,358.8,933.67,315.0,-157.5,-892.5
-46.36,356.24,935.01,875.0,-70.0,3097.5
-53.19,354.17,936.47,1995.0,490.0,7122.5
-58.8,352.58,937.33,3272.5,332.5,10535.0
-62.95,351.6,937.45,4165.0,-402.5,12950.0
-66.25,350.99,937.08,4305.0,-665.0,14892.5
-69.05,350.51,936.23,3692.5,-647.5,16782.5
-71.49,349.9,935.25,3237.5,-1102.5,18812.5
-73.44,349.53,934.4,2870.0,-1855.0,20982.5
-74.18,349.29,934.15,3097.5,-2362.5,23327.5
-73.44,349.77,934.15,3447.5,-1960.0,24640.0
-71.61,350.63,934.28,3150.0,-1557.5,24780.0
-69.54,351.6,934.4,3447.5,-2152.5,24955.0
-67.71,352.21,934.52,4147.5,-2590.0,25585.0
-65.88,352.58,934.4,3937.5,-2362.5,26652.5
-63.81,352.7,934.15,4252.5,-2625.0,27842.5
-61.12,353.07,934.03,4200.0,-2590.0,28805.0
-57.83,353.8,934.03,4725.0,-2852.5,29680.0
-53.8,355.02,934.03,5075.0,-2397.5,30030.0
-49.29,356.85,933.67,5145.0,-2257.5,29557.5
-44.65,358.31,933.18,4585.0,-2117.5,29032.5
-40.75,359.29,933.06,4200.0,-2047.5,28927.5
-37.45,359.9,932.81,4882.5,-2030.0,29715.0
-34.04,360.39,932.32,5810.0,-2485.0,31115.0
-29.89,361.36,931.47,6090.0,-2415.0,31815.0
-25.13,363.07,930.13,5495.0,-2327.5,31342.5
-20.25,364.9,928.66,4882.5,-2852.5,30572.5
-15.74,366.37,927.44,4060.0,-2835.0,30292.5
-11.35,367.46,926.59,3237.5,-2152.5,30520.0
-6.83,368.2,926.22,3482.5,-2030.0,31097.5
-1.71,369.17,926.22,4270.0,-2082.5,31395.0
3.66,370.39,925.98,4270.0,-1697.5,31080.0
8.91,371.61,925.74,4042.5,-1382.5,30677.5
13.79,372.71,925.37,3710.0,-1015.0,30380.0
18.54,373.44,925.13,3150.0,-280.0,30485.0
23.06,374.17,925.25,3622.5,-140.0,30730.0
27.57,374.78,925.13,4655.0,-910.0,30712.5
32.21,375.52,925.0,5372.5,-1435.0,30555.0
37.09,376.25,924.64,5582.5,-1347.5,30817.5
42.7,377.47,924.15,6265.0,-1662.5,31167.5
49.53,379.18,923.3,6545.0,-1820.0,30257.5
57.1,381.37,922.08,5985.0,-1312.5,29312.5
65.39,383.93,920.49,5285.0,-822.5,27790.0
74.54,386.86,918.54,4935.0,-1452.5,25427.5
84.18,390.16,916.22,4742.5,-3132.5,22417.5
94.55,393.57,913.54,4112.5,-3850.0,19145.0
105.65,397.23,911.1,2625.0,-3517.5,14980.0
116.63,400.77,909.02,490.0,-2030.0,10692.5
127.37,404.06,907.31,-507.5,-1592.5,6335.0
137.13,407.24,905.73,-577.5,-2327.5,2257.5
146.28,410.16,904.02,-1172.5,-2835.0,-2310.0
154.45,412.6,902.43,-3027.5,-2870.0,-6877.5
161.41,414.31,901.82,-3955.0,-3080.0,-10587.5
167.02,415.29,901.95,-4410.0,-1960.0,-13405.0
171.41,416.14,902.43,-4357.5,-1365.0,-15977.5
174.58,416.63,902.92,-4865.0,-752.5,-18410.0
176.66,416.75,903.9,-4637.5,-577.5,-20475.0
178.0,416.51,904.87,-3342.5,-980.0,-22120.0
178.97,416.14,905.61,-3062.5,-507.5,-23695.0
179.34,415.78,905.85,-3202.5,87.5,-25340.0
179.22,415.29,905.73,-4532.5,1102.5,-26827.5
178.12,414.56,906.09,-4760.0,945.0,-28245.0
176.66,413.7,906.46,-3220.0,-560.0,-29330.0
174.95,412.85,906.58,-3797.5,-297.5,-30467.5
173.0,411.87,906.95,-4970.0,875.0,-31535.0
170.68,410.77,907.68,-4620.0,1067.5,-32270.0
168.12,409.92,908.17,-3447.5,262.5,-33145.0
165.43,409.19,908.17,-3815.0,-140.0,-34457.5
162.38,408.09,908.17,-5215.0,595.0,-35507.5
159.09,406.75,908.66,-5827.5,980.0,-35857.5
155.55,405.28,909.39,-5092.5,490.0,-36172.5
151.77,403.94,910.0,-4585.0,612.5,-36662.5
147.86,402.6,910.36,-5302.5,1207.5,-37082.5
143.72,401.38,910.97,-5775.0,1295.0,-37642.5
139.08,400.04,911.95,-5670.0,962.5,-38412.5
134.08,398.57,912.8,-5337.5,297.5,-39252.5
128.47,396.87,913.78,-5407.5,420.0,-39445.0
122.37,394.91,914.63,-5355.0,945.0,-38762.5
116.14,392.72,915.73,-5617.5,2030.0,-38010.0
109.68,390.64,916.95,-6177.5,3360.0,-37555.0
102.85,388.33,918.29,-5302.5,2467.5,-37240.0
95.77,386.01,919.51,-4095.0,1330.0,-36347.5
88.82,383.93,920.61,-3552.5,1767.5,-35332.5
81.74,381.98,920.98,-3517.5,1715.0,-34982.5
74.18,380.03,920.98,-3640.0,630.0,-34282.5
66.25,377.71,921.34,-4077.5,717.5,-32725.0
58.44,375.52,922.2,-4585.0,1907.5,-30152.5
51.24,373.56,923.42,-4025.0,2677.5,-28140.0
44.41,372.22,924.52,-3482.5,2012.5,-27720.0
37.21,370.76,925.49,-3552.5,682.5,-27562.5
29.28,368.68,927.08,-3745.0,1050.0,-26687.5
20.25,366.0,929.03,-3115.0,1802.5,-24850.0
10.37,363.07,930.62,-1872.5,1330.0,-22102.5
-0.24,359.78,931.96,-892.5,525.0,-18305.0
-10.98,356.48,933.06,-332.5,175.0,-13930.0
-21.23,353.56,934.4,35.0,787.5,-9345.0
-30.99,350.99,935.62,665.0,1312.5,-5495.0
-40.5,348.68,936.59,1907.5,367.5,-1470.0
-48.8,346.72,937.45,2572.5,210.0,2975.0
-55.75,345.38,938.3,2537.5,1627.5,6457.5
-61.85,344.28,938.79,3010.0,1522.5,9257.5
-67.47,343.31,938.79,4060.0,-455.0,12197.5
-71.98,342.58,938.67,4865.0,-1032.5,15470.0
-74.91,342.33,938.42,4865.0,420.0,18375.0
-76.62,342.82,937.57,4602.5,367.5,20125.0
-77.59,343.43,936.11,4235.0,-1365.0,21122.5
-77.84,344.04,935.01,3360.0,-1872.5,21892.5
-77.96,344.41,934.76,2852.5,-1505.0,23222.5
-77.84,344.65,934.76,3587.5,-1785.0,25270.0
-76.62,345.14,935.01,4410.0,-1715.0,27160.0
-74.3,346.11,935.13,4462.5,-945.0,28122.5
-71.49,347.33,934.89,4322.5,-892.5,28297.5
-68.69,348.68,934.52,4795.0,-1855.0,28437.5
-66.12,349.65,934.15,4725.0,-2012.5,28875.0
-63.93,350.38,933.54,4305.0,-1872.5,29365.0
-62.95,350.75,932.69,3867.5,-2642.5,30432.5
-62.71,350.38,932.08,4077.5,-4095.0,32585.0
-61.61,350.14,932.32,5267.5,-4462.5,35542.5
-58.32,350.87,933.06,6195.0,-2817.5,37520.0
-53.31,352.58,933.54,6212.5,-665.0,37817.5
-47.82,354.9,933.54,6195.0,-385.0,37012.5
-42.58,356.85,932.93,6352.5,-1417.5,36172.5
-37.7,358.19,932.2,6160.0,-1977.5,36522.5
-32.57,359.17,931.71,6282.5,-1575.0,37415.0
-26.6,360.14,931.35,7087.5,-1452.5,38115.0
-19.64,361.61,930.62,7945.0,-1662.5,38465.0
-11.47,364.05,929.4,7542.5,-1242.5,37170.0
-3.29,366.85,928.18,6195.0,-840.0,34860.0
4.03,369.42,927.2,5512.5,-1260.0,33145.0
10.49,371.49,926.47,5862.5,-1487.5,32532.5
17.2,373.2,925.98,6457.5,-1102.5,32462.5
24.16,374.91,925.49,6702.5,-367.5,32235.0
31.72,377.1,924.76,6877.5,-280.0,31465.0
39.53,379.66,923.54,6597.5,-70.0,29382.5
46.73,382.23,921.95,5845.0,-192.5,27142.5
52.95,384.42,920.49,4970.0,-840.0,25322.5
58.56,386.01,919.39,5267.5,-1505.0,24202.5
63.56,387.47,918.29,5635.0,-1680.0,23957.5
68.69,388.94,917.2,5740.0,-1417.5,23765.0
74.18,390.89,915.73,5267.5,-1102.5,22855.0
79.42,393.08,914.02,4952.5,-2030.0,21367.5
84.42,395.4,912.44,4287.5,-3097.5,19652.5
89.06,397.23,911.34,3062.5,-2782.5,18357.5
93.82,398.45,911.1,2992.5,-2082.5,17552.5
98.58,399.55,911.22,3587.5,-910.0,17220.0
103.7,400.65,911.34,3622.5,437.5,16730.0
108.82,401.99,910.85,3692.5,315.0,16047.5
114.92,403.7,910.36,4830.0,-507.5,15330.0
121.51,406.02,909.27,5075.0,-210.0,13317.5
128.1,408.58,907.56,4077.5,-787.5,10902.5
134.81,411.14,905.85,3535.0,-1855.0,8995.0
142.13,413.82,904.26,3482.5,-1172.5,5932.5
149.57,416.75,902.31,2117.5,-297.5,2170.0
156.28,419.31,900.12,630.0,-490.0,-1522.5
162.14,421.51,898.41,-175.0,-770.0,-4847.5
167.02,423.34,897.07,-630.0,-1365.0,-7437.5
171.53,424.8,895.97,-1522.5,-1365.0,-9852.5
175.44,426.27,895.11,-2852.5,-367.5,-12670.0
178.36,427.37,894.63,-3727.5,-472.5,-15347.5
180.07,427.85,894.75,-3552.5,-1120.0,-17045.0
181.17,427.98,894.99,-2467.5,-1452.5,-18392.5
181.9,427.98,895.24,-1890.0,-1295.0,-19407.5
182.39,428.1,894.99,-2625.0,-437.5,-20912.5
182.39,428.1,894.99,-4830.0,805.0,-22540.0
181.54,427.73,895.48,-4637.5,525.0,-23590.0
180.07,427.24,896.09,-3937.5,210.0,-24220.0
178.24,426.76,896.46,-3412.5,-17.5,-24902.5
176.17,426.15,896.46,-3622.5,-280.0,-25865.0
173.85,425.54,896.46,-3955.0,-385.0,-26687.5
171.29,424.8,896.58,-4655.0,17.5,-27282.5
168.36,423.83,897.19,-5810.0,1067.5,-27965.0
164.82,422.73,897.92,-4882.5,437.5,-28245.0
161.04,421.63,898.41,-3990.0,-612.5,-28192.5
157.26,420.78,898.53,-4112.5,-752.5,-28192.5
153.35,419.8,898.9,-5372.5,-175.0,-28682.5
149.08,418.46,899.87,-6755.0,735.0,-28770.0
144.57,417.0,901.82,-6037.5,1365.0,-27965.0
140.06,415.65,903.65,-4130.0,1172.5,-27475.0
135.42,414.43,904.63,-3115.0,420.0,-27142.5
131.03,413.34,904.87,-3220.0,-367.5,-27072.5
126.76,412.36,905.24,-3885.0,-455.0,-27387.5
122.49,411.26,906.34,-5110.0,997.5,-27527.5
117.85,409.92,907.8,-5127.5,2030.0,-26880.0
113.09,408.7,909.14,-3710.0,1627.5,-25935.0
108.95,407.6,910.36,-2992.5,1312.5,-25637.5
105.04,406.87,911.1,-2922.5,1435.0,-25847.5
101.02,406.26,911.58,-3045.0,1627.5,-25812.5
97.11,405.65,911.83,-2870.0,1155.0,-25935.0
92.96,405.04,911.71,-3080.0,665.0,-26092.5
88.82,404.19,911.71,-3500.0,700.0,-25865.0
84.67,403.33,911.95,-4270.0,1575.0,-25602.5
80.28,402.36,912.19,-4410.0,1190.0,-25585.0
75.88,401.5,912.8,-4917.5,1155.0,-25392.5
71.49,400.4,913.78,-4567.5,1225.0,-24920.0
67.22,399.31,914.51,-3797.5,1155.0,-24412.5
63.07,398.45,914.88,-3325.0,770.0,-24132.5
58.8,397.6,914.88,-3342.5,105.0,-24115.0
54.66,396.74,914.51,-3237.5,-1190.0,-24080.0
50.51,395.77,914.51,-3692.5,-1330.0,-23870.0
46.36,394.67,915.12,-4620.0,280.0,-23362.5
42.21,393.45,916.34,-4865.0,1242.5,-22592.5
38.31,392.35,917.81,-4987.5,1207.5,-22295.0
34.28,391.25,919.88,-4672.5,1085.0,-22505.0
29.77,389.91,921.95,-3150.0,542.5,-22312.5
25.13,388.57,923.66,-1505.0,-332.5,-21647.5
20.62,387.23,924.76,-962.5,122.5,-20982.5
15.74,385.76,925.49,-1207.5,1347.5,-19897.5
10.49,384.18,925.61,-1680.0,1942.5,-18515.0
5.0,382.59,925.37,-1680.0,1067.5,-17570.0
-0.85,380.88,925.25,-2012.5,210.0,-16572.5
-6.83,379.18,925.61,-1977.5,-105.0,-15382.5
-13.3,377.35,926.47,-1942.5,490.0,-13667.5
-20.25,375.39,927.2,-1995.0,1015.0,-11252.5
-27.33,373.2,928.18,-2012.5,945.0,-8872.5
-34.89,370.76,929.27,-1557.5,682.5,-6405.0
-42.58,368.07,930.74,-420.0,490.0,-2712.5
-49.53,365.76,932.2,875.0,507.5,1487.5
-55.63,363.93,933.3,2187.5,560.0,4795.0
-60.63,362.58,934.03,2782.5,525.0,7315.0
-65.03,361.61,934.4,2870.0,472.5,9555.0
-69.05,360.63,934.52,2905.0,367.5,11917.5
-72.47,359.78,934.4,3395.0,-70.0,14140.0
-75.52,358.92,934.15,3990.0,-770.0,16485.0
-78.08,358.19,933.79,4287.5,-1102.5,18707.5
-79.79,357.95,933.3,4287.5,-717.5,21000.0
-80.4,357.95,932.57,3990.0,-87.5,22995.0
-79.79,358.44,931.84,3832.5,-297.5,24360.0
-77.96,359.41,931.1,4095.0,-980.0,24570.0
-75.64,360.63,930.25,3832.5,-1452.5,24552.5
-73.2,361.61,929.52,3272.5,-1277.5,24867.5
-70.52,362.34,929.03,3132.5,-1505.0,25567.5
-67.34,363.07,928.91,3640.0,-2187.5,26197.5
-63.68,364.41,928.66,4270.0,-2730.0,26250.0
-59.9,365.88,927.93,4305.0,-2765.0,25742.5
-56.73,367.22,926.96,3535.0,-2695.0,25585.0
-53.68,368.2,926.22,3482.5,-3255.0,26547.5
-49.78,369.29,925.74,3745.0,-3220.0,27212.5
-45.14,370.76,925.49,3535.0,-2642.5,26985.0
-39.77,372.59,925.37,3167.5,-1942.5,26285.0
-34.4,374.42,925.25,3465.0,-1837.5,25427.5
-29.28,376.25,925.0,3780.0,-2100.0,24745.0
-24.52,377.71,924.64,3325.0,-1925.0,24167.5
-19.89,378.81,924.39,3202.5,-1837.5,24150.0
-14.88,380.03,924.27,3832.5,-1697.5,23905.0
-10.0,381.62,923.78,4112.5,-1960.0,22960.0
-5.37,383.08,922.81,4095.0,-2887.5,22067.5
-1.22,384.54,921.95,3412.5,-2905.0,21315.0
2.68,385.52,921.34,2432.5,-2187.5,21490.0
6.83,386.62,921.22,2170.0,-1277.5,21525.0
11.1,387.96,921.1,2607.5,-1312.5,20597.5
14.64,388.94,920.61,3255.0,-2485.0,19932.5
17.81,389.67,920.12,3447.5,-3097.5,19985.0
20.74,390.16,919.76,3272.5,-2677.5,20300.0
23.79,390.77,919.27,3360.0,-2642.5,20492.5
27.57,391.38,918.9,3097.5,-2082.5,20737.5
31.72,392.47,918.42,2152.5,-595.0,20370.0
35.62,393.69,918.17,1347.5,-245.0,19512.5
38.8,394.55,918.29,1802.5,-1347.5,18830.0
41.48,394.67,918.66,2852.5,-1697.5,19320.0
44.29,394.67,919.39,3325.0,-1032.5,20160.0
47.58,395.04,919.64,4130.0,-560.0,20510.0
51.48,395.89,919.51,4480.0,-700.0,19512.5
54.78,396.87,918.9,4007.5,-665.0,18690.0
57.58,397.48,918.17,3675.0,-665.0,18707.5
60.02,397.84,917.44,3395.0,-1137.5,18952.5
62.34,397.96,916.71,3902.5,-1802.5,19267.5
64.9,398.21,916.1,4182.5,-2135.0,19565.0
68.2,398.7,915.37,4095.0,-1977.5,20055.0
72.59,399.79,914.76,3430.0,-682.5,19845.0
77.47,401.38,914.02,3255.0,-472.5,18795.0
82.35,402.84,912.93,3167.5,-1662.5,17395.0
87.23,404.19,911.95,2397.5,-1750.0,15977.5
91.99,405.04,911.22,1645.0,-980.0,15032.5
96.99,406.14,910.73,1960.0,-735.0,14332.5
102.48,407.6,910.0,2572.5,-1137.5,12985.0
108.09,409.31,908.9,2292.5,-1522.5,11305.0
114.07,410.9,907.68,1627.5,-1487.5,9940.0
120.54,412.73,906.95,1137.5,-735.0,8575.0
127.61,414.92,906.09,1067.5,35.0,5897.5
134.81,417.36,904.75,997.5,-752.5,2450.0
141.76,419.68,903.29,280.0,-1732.5,-1190.0
148.11,421.75,902.07,-1085.0,-1505.0,-4462.5
153.96,423.34,900.97,-2170.0,-892.5,-7420.0
158.84,424.8,900.12,-2572.5,-1067.5,-10360.0
162.75,425.78,899.51,-2660.0,-1907.5,-12950.0
166.04,426.63,899.14,-3272.5,-1610.0,-15365.0
168.36,427.0,899.02,-4252.5,-875.0,-17587.5
169.7,426.88,899.38,-4217.5,-735.0,-19215.0
170.31,426.27,900.12,-4322.5,52.5,-20282.5
170.07,425.78,900.6,-4602.5,787.5,-21210.0
169.46,425.05,901.09,-4532.5,280.0,-22435.0
168.12,424.19,901.58,-4200.0,-472.5,-23502.5
166.53,423.1,902.19,-4165.0,-297.5,-24272.5
164.46,422.12,902.8,-4410.0,332.5,-24920.0
161.89,421.02,903.41,-4112.5,367.5,-24972.5
159.33,420.05,904.02,-4882.5,1260.0,-25532.5
156.04,418.83,904.63,-4760.0,962.5,-26110.0
152.26,417.48,905.12,-3745.0,105.0,-25795.0
148.6,416.26,905.73,-4550.0,945.0,-25707.5
144.81,414.92,906.22,-4742.5,437.5,-25742.5
141.03,413.58,907.07,-4865.0,262.5,-25900.0
137.13,412.24,908.17,-4147.5,525.0,-25760.0
133.22,410.9,908.78,-2992.5,-262.5,-25200.0
129.56,409.92,908.9,-3797.5,507.5,-25427.5
125.66,408.94,909.02,-4637.5,1032.5,-25637.5
121.51,407.48,909.27,-5145.0,945.0,-25252.5
117.36,406.26,909.88,-4707.5,437.5,-25060.0
113.22,404.92,910.61,-4025.0,-262.5,-24937.5
109.19,403.58,911.22,-3745.0,-840.0,-24675.0
105.29,402.6,912.07,-4252.5,-157.5,-24377.5
101.75,401.62,913.05,-4725.0,1102.5,-24220.0
98.21,400.77,914.27,-4917.5,1540.0,-24272.5
94.55,399.79,915.49,-4532.5,1277.5,-24377.5
90.77,398.7,916.71,-3150.0,455.0,-24080.0
87.23,397.6,917.56,-2222.5,385.0,-23782.5
83.81,396.74,917.93,-2677.5,770.0,-23765.0
80.4,396.01,918.05,-3237.5,420.0,-24010.0
76.86,395.16,918.54,-3622.5,595.0,-24027.5
73.44,394.3,919.39,-3832.5,1505.0,-23852.5
69.78,393.08,920.12,-3937.5,1715.0,-23712.5
65.88,391.99,920.98,-3290.0,1067.5,-23590.0
61.98,390.77,921.95,-3062.5,1155.0,-23187.5
57.95,389.55,923.17,-2922.5,2205.0,-22767.5
53.68,388.33,924.03,-2712.5,2345.0,-22330.0
49.29,387.11,924.76,-2415.0,1837.5,-21857.5
45.14,385.89,925.37,-1925.0,1540.0,-21367.5
40.87,384.79,925.74,-1662.5,1890.0,-20650.0
37.09,383.81,925.86,-1802.5,2397.5,-20125.0
33.67,383.2,925.74,-1837.5,1960.0,-20142.5
30.5,382.84,925.61,-1767.5,1382.5,-20352.5
27.33,382.47,925.37,-2170.0,1505.0,-20615.0
23.91,381.86,925.25,-2467.5,1487.5,-20475.0
20.5,381.25,925.13,-2117.5,1015.0,-20265.0
16.59,380.4,925.0,-2397.5,770.0,-20317.5
12.57,379.3,925.0,-3027.5,1085.0,-19880.0
7.93,377.96,925.25,-3255.0,1382.5,-19057.5
2.68,376.37,925.74,-3027.5,1400.0,-18077.5
-3.05,374.66,926.35,-3167.5,1242.5,-17062.5
-9.52,372.59,926.96,-3517.5,840.0,-16065.0
-16.84,370.27,927.93,-2922.5,-17.5,-14490.0
-24.52,367.95,929.15,-2117.5,-262.5,-13282.5
-32.94,365.27,929.64,-1855.0,-612.5,-12197.5
-42.46,361.85,930.13,-1890.0,-2275.0,-7927.5
-51.48,358.56,931.59,-1522.5,-1365.0,-2117.5
-59.29,355.75,933.54,-455.0,892.5,2975.0
-66.12,353.56,934.76,805.0,1452.5,7017.5
-71.98,351.85,935.5,1715.0,192.5,9922.5
-76.98,350.38,936.11,2362.5,-770.0,12757.5
-80.64,349.29,936.72,3447.5,-805.0,16275.0
-82.35,348.8,936.59,3395.0,140.0,18515.0
-82.84,348.8,935.86,2117.5,52.5,19075.0
-82.72,348.8,935.62,1662.5,-1085.0,19267.5
-82.84,348.43,935.98,2450.0,-1610.0,20457.5
-82.84,347.94,936.47,2905.0,-1242.5,22400.0
-82.47,347.58,936.84,3622.5,-1592.5,24150.0
-81.25,347.46,937.08,4655.0,-2362.5,25305.0
-79.42,347.7,937.2,4882.5,-2030.0,26390.0
-76.98,348.19,937.08,4427.5,-1050.0,27265.0
-74.3,349.16,936.72,4182.5,-1102.5,27387.5
-71.61,350.14,936.23,4217.5,-2152.5,27475.0
-68.81,350.87,936.23,4287.5,-2100.0,28420.0
-65.64,351.85,936.11,4812.5,-1330.0,29470.0
-61.85,353.07,935.74,5582.5,-1662.5,29960.0
-57.58,354.53,934.76,5862.5,-2572.5,29557.5
-53.07,356.12,933.79,5547.5,-2975.0,29277.5
-47.95,357.7,932.93,5600.0,-2292.5,29295.0
-42.58,359.53,931.71,5390.0,-1610.0,29085.0
-37.09,361.61,930.13,4340.0,-1732.5,28262.5
-31.96,363.56,928.42,2975.0,-2362.5,26792.5
-27.57,364.9,927.69,2187.5,-2940.0,26022.5
-23.42,366.0,927.81,2922.5,-3132.5,26687.5
-18.91,367.1,928.18,3832.5,-2205.0,27055.0
-14.15,368.44,928.3,3780.0,-1732.5,26512.5
-9.52,369.78,928.18,3675.0,-2240.0,25917.5
-5.0,371.0,928.42,4182.5,-2082.5,25742.5
-0.37,372.34,928.42,4480.0,-1417.5,25655.0
4.27,373.69,928.18,4567.5,-1802.5,25112.5
8.91,375.03,927.81,4340.0,-1855.0,24360.0
12.93,376.0,927.32,4235.0,-1365.0,23940.0
16.35,376.86,926.71,4305.0,-1417.5,24412.5
20.01,377.47,925.86,4620.0,-1872.5,24902.5
24.03,378.44,925.0,4252.5,-1540.0,24675.0
28.43,379.66,924.27,3797.5,-1207.5,24290.0
32.94,381.13,923.54,3937.5,-1417.5,23625.0
37.21,382.47,922.81,3885.0,-1820.0,23082.5
41.72,383.69,922.32,3255.0,-1382.5,22557.5
46.12,384.79,922.32,2940.0,-910.0,21857.5
50.39,385.89,922.44,3237.5,-997.5,21332.5
54.66,386.74,922.69,3937.5,-1085.0,20947.5
58.68,387.59,922.81,4235.0,-630.0,20475.0
62.46,388.2,922.56,4392.5,-280.0,20160.0
65.88,388.81,921.95,4550.0,-297.5,20247.5
69.54,389.55,921.22,4917.5,-280.0,20475.0
73.57,390.64,920.12,4672.5,0.0,20107.5
77.84,391.86,918.66,4042.5,-227.5,19005.0
81.74,392.96,917.56,3517.5,-892.5,18182.5
85.64,394.06,916.71,3622.5,-910.0,18077.5
90.28,395.52,915.98,4200.0,-1015.0,17867.5
95.53,397.23,914.88,4235.0,-927.5,16835.0
101.14,398.94,913.78,3220.0,-437.5,16292.5
107.24,400.65,912.8,2590.0,262.5,14437.5
113.95,402.72,911.71,3027.5,-770.0,11970.0
121.15,405.16,910.24,3395.0,-1767.5,9047.5
128.71,407.85,908.66,2327.5,-1295.0,6405.0
136.4,410.77,906.83,700.0,-140.0,3202.5
143.72,413.58,904.87,-1085.0,35.0,-1172.5
149.94,415.65,903.29,-2047.5,-1242.5,-5232.5
154.7,417.0,902.68,-2310.0,-1417.5,-8120.0
158.6,417.73,902.56,-2905.0,-175.0,-9992.5
161.28,418.22,902.68,-2677.5,-87.5,-11655.0
162.99,418.58,902.56,-2380.0,-1032.5,-13387.5
164.09,418.95,902.31,-2817.5,-1260.0,-14962.5
164.33,418.83,902.43,-3780.0,-752.5,-16187.5
163.97,418.46,903.04,-4130.0,-122.5,-17027.5
162.99,417.73,903.9,-3150.0,-420.0,-17517.5
161.77,416.87,904.63,-2555.0,-840.0,-17937.5
160.31,416.26,905.24,-2730.0,-262.5,-18270.0
158.84,415.65,905.73,-3220.0,507.5,-18690.0
157.01,415.04,906.34,-3325.0,542.5,-19302.5
155.06,414.31,906.95,-2870.0,297.5,-19932.5
152.87,413.58,907.44,-3185.0,857.5,-20212.5
150.43,412.6,908.05,-3237.5,752.5,-20562.5
147.5,411.63,908.78,-2747.5,175.0,-20597.5
144.69,410.53,909.39,-2222.5,297.5,-20335.0
142.01,409.8,909.88,-2467.5,1120.0,-20387.5
139.32,408.94,909.88,-2695.0,1172.5,-20457.5
136.76,408.33,910.0,-3115.0,1207.5,-20562.5
134.08,407.85,910.12,-2887.5,682.5,-21192.5
131.03,407.24,910.36,-3097.5,402.5,-21420.0
128.1,406.38,910.73,-3342.5,665.0,-21315.0
125.17,405.53,911.34,-3290.0,1155.0,-21227.5
122.0,404.67,912.07,-2922.5,665.0,-21227.5
118.71,403.94,912.56,-2502.5,17.5,-21175.0
115.66,403.21,913.17,-2747.5,210.0,-21350.0
112.48,402.36,913.78,-2765.0,595.0,-21420.0
109.19,401.62,914.39,-2712.5,787.5,-21297.5
105.9,400.77,915.0,-2782.5,1400.0,-21087.5
102.48,400.16,915.49,-2502.5,1645.0,-20667.5
99.19,399.67,915.61,-2170.0,1172.5,-20615.0
96.14,399.31,915.49,-2800.0,787.5,-21000.0
93.33,398.82,915.73,-3395.0,612.5,-21437.5
90.16,398.09,916.46,-3115.0,560.0,-21332.5
87.11,397.48,917.44,-2450.0,997.5,-20947.5
83.81,396.74,917.93,-2327.5,840.0,-20860.0
80.64,396.13,918.29,-2135.0,315.0,-20947.5
77.47,395.4,918.66,-2555.0,735.0,-20842.5
74.42,394.67,919.27,-2537.5,1312.5,-20702.5
71.61,394.18,919.51,-2152.5,1400.0,-20685.0
68.56,393.69,919.39,-1837.5,455.0,-20912.5
65.64,393.21,919.27,-2572.5,280.0,-21070.0
62.59,392.6,919.39,-3115.0,647.5,-21122.5
59.54,391.99,919.64,-3220.0,542.5,-21227.5
56.61,391.38,919.88,-3220.0,227.5,-21665.0
53.44,390.52,920.25,-2625.0,-805.0,-22120.0
50.02,389.67,920.49,-1662.5,-1260.0,-21122.5
46.85,388.94,920.61,-2485.0,297.5,-20562.5
43.55,388.2,920.61,-3447.5,717.5,-20545.0
40.02,387.47,920.61,-3237.5,-472.5,-20685.0
36.11,386.5,921.22,-3535.0,-507.5,-20720.0
31.72,385.28,922.32,-3692.5,-122.5,-20247.5
26.72,383.57,923.54,-3727.5,420.0,-19285.0
20.98,381.62,925.37,-3955.0,1260.0,-18182.5
14.15,379.42,927.2,-3220.0,787.5,-16905.0
6.47,376.74,929.15,-2082.5,52.5,-14752.5
-1.71,373.81,931.1,-1365.0,647.5,-11672.5
-9.76,371.0,932.57,-437.5,1102.5,-8995.0
-18.06,368.44,933.3,507.5,-52.5,-6317.5
-26.23,365.76,933.91,1260.0,-840.0,-2310.0
-33.79,363.32,934.76,1312.5,1190.0,2100.0
-40.63,361.49,935.13,1400.0,1942.5,5705.0
-46.85,359.9,934.89,1942.5,122.5,8435.0
-52.09,358.56,934.76,2975.0,-1540.0,11305.0
-56.12,357.46,934.89,2712.5,-525.0,14350.0
-59.17,356.73,935.01,2310.0,630.0,16800.0
-61.37,356.36,934.89,2695.0,-595.0,18620.0
-62.71,356.0,934.89,3605.0,-2030.0,20055.0
-63.2,355.63,935.25,3570.0,-1330.0,21857.5
-63.32,355.51,935.37,3517.5,-560.0,23590.0
-62.71,355.51,935.25,4077.5,-980.0,25112.5
-61.12,356.0,935.25,4690.0,-1767.5,26250.0
-58.56,356.73,935.01,4812.5,-1505.0,26687.5
-55.88,357.7,934.52,4392.5,-1277.5,27002.5
-52.95,358.68,933.79,4515.0,-1557.5,27545.0
-49.9,359.53,933.18,4532.5,-1627.5,28192.5
-46.6,360.39,932.57,4217.5,-1697.5,28560.0
-42.7,361.49,932.2,3727.5,-927.5,28717.5
-38.8,362.58,932.08,3815.0,-700.0,28927.5
-34.89,363.68,932.08,4550.0,-1347.5,29137.5
-30.74,365.02,931.84,5215.0,-1680.0,29242.5
-26.35,366.24,931.47,5600.0,-1610.0,29400.0
-21.35,367.71,930.62,5722.5,-1505.0,29417.5
-16.1,369.54,929.52,5512.5,-1645.0,28700.0
-10.98,371.25,927.93,4427.5,-2030.0,27772.5
-6.1,372.71,926.71,3972.5,-2625.0,27107.5
-1.46,373.93,925.86,4007.5,-2940.0,27055.0
3.66,375.27,925.25,3885.0,-2467.5,27352.5
9.27,376.74,924.88,3727.5,-1750.0,26915.0
15.49,378.69,924.52,3780.0,-1750.0,25742.5
21.72,380.64,924.15,4322.5,-2520.0,24167.5
27.57,382.35,923.78,4357.5,-2870.0,22662.5
32.94,383.69,923.54,3972.5,-2257.5,21910.0
37.82,384.79,923.54,4025.0,-1400.0,21630.0
42.7,385.89,923.3,4445.0,-1032.5,21507.5
47.7,387.23,922.81,4515.0,-840.0,20895.0
52.7,388.57,922.08,3867.5,-402.5,19635.0
56.97,389.67,921.47,3430.0,-595.0,18497.5
60.27,390.52,921.1,3587.5,-962.5,18042.5
62.95,391.13,920.73,3780.0,-52.5,18287.5
64.9,391.62,919.88,4077.5,-140.0,18532.5
66.12,391.86,918.42,4200.0,-1767.5,18707.5
67.22,392.11,917.07,3832.5,-2677.5,19075.0
68.56,392.23,916.46,3185.0,-1627.5,20300.0
70.39,392.6,915.98,3255.0,-822.5,21437.5
73.44,393.45,915.49,3570.0,-1417.5,21385.0
77.35,394.55,915.12,3080.0,-1347.5,20387.5
81.74,395.52,915.37,2852.5,-280.0,19950.0
86.86,396.62,915.73,3972.5,122.5,19810.0
92.72,398.21,915.61,4830.0,-245.0,19162.5
99.8,400.4,915.0,5495.0,-735.0,17850.0
107.97,402.72,913.9,5460.0,-577.5,15610.0
116.63,405.16,912.32,4392.5,402.5,14070.0
125.9,408.21,910.61,3202.5,1417.5,11287.5
135.66,411.63,908.41,2327.5,892.5,5915.0
144.94,415.04,905.97,1680.0,-1225.0,402.5
153.23,417.97,903.65,-105.0,-822.5,-4007.5
160.19,420.41,901.82,-1627.5,-122.5,-7560.0
165.68,422.36,900.36,-2117.5,-665.0,-10762.5
170.19,423.83,899.26,-2730.0,-1330.0,-13825.0
173.61,424.8,898.65,-3850.0,-735.0,-16520.0
175.68,425.17,898.65,-4655.0,52.5,-18462.5
176.53,425.29,899.14,-4252.5,-35.0,-19862.5
176.66,425.05,899.63,-3797.5,-315.0,-21192.5
176.05,424.68,900.12,-3727.5,-280.0,-22417.5
174.95,424.19,900.6,-4392.5,385.0,-23345.0
173.24,423.34,901.09,-4707.5,770.0,-24202.5
170.8,422.36,901.58,-4567.5,402.5,-24990.0
167.75,421.14,902.31,-3885.0,-140.0,-25095.0
164.94,419.92,902.8,-3535.0,175.0,-25060.0
162.02,418.95,903.04,-4340.0,892.5,-25515.0
158.97,417.97,903.53,-4707.5,647.5,-26215.0
155.67,416.75,904.39,-4672.5,472.5,-26565.0
152.01,415.53,905.73,-4095.0,840.0,-26495.0
148.35,414.07,906.95,-4060.0,1452.5,-26127.5
144.57,412.73,907.92,-3552.5,1452.5,-26005.0
140.67,411.63,908.66,-2747.5,647.5,-26040.0
136.88,410.65,908.9,-2607.5,315.0,-26092.5
132.98,409.8,909.02,-3500.0,1295.0,-26145.0
129.08,408.94,909.27,-4392.5,1907.5,-26127.5
125.17,407.97,909.88,-3552.5,1207.5,-25987.5
121.51,407.36,910.49,-2975.0,875.0,-26232.5
117.97,406.75,910.85,-3657.5,1330.0,-26617.5
114.44,406.02,911.22,-4130.0,1470.0,-26792.5
110.78,405.28,911.95,-4340.0,1575.0,-26985.0
106.87,404.31,912.93,-4637.5,1645.0,-27510.0
102.48,403.09,914.39,-3710.0,980.0,-27352.5
97.97,401.62,915.85,-2380.0,1137.5,-26687.5
93.57,400.4,916.71,-2520.0,2537.5,-26145.0
89.3,399.55,916.71,-2677.5,2415.0,-26145.0
84.79,398.82,916.22,-3045.0,1102.5,-26740.0
79.79,397.84,915.73,-3290.0,105.0,-26547.5
74.54,396.5,915.24,-3675.0,280.0,-25795.0
69.05,395.16,914.76,-4637.5,420.0,-25042.5
63.81,393.57,914.88,-5127.5,-35.0,-24010.0
59.17,392.35,915.98,-5460.0,840.0,-23310.0
55.02,391.38,917.68,-4567.5,1487.5,-22680.0
51.0,390.64,919.15,-3587.5,1680.0,-22190.0
47.46,390.16,920.37,-3220.0,1837.5,-22172.5
43.92,389.55,921.47,-3132.5,2117.5,-22435.0
39.89,388.69,922.32,-3272.5,1680.0,-22470.0
35.62,387.35,923.54,-2905.0,1190.0,-22032.5
31.23,385.89,924.76,-1872.5,1400.0,-21402.5
26.23,384.42,925.25,-1190.0,1347.5,-20772.5
20.5,382.84,925.0,-1697.5,822.5,-20002.5
14.03,381.01,924.64,-3010.0,647.5,-19057.5
7.08,378.69,925.13,-3517.5,945.0,-17115.0
-0.12,376.49,926.22,-2887.5,1207.5,-15155.0
-7.69,374.3,927.2,-2415.0,472.5,-13702.5
-15.86,371.73,928.3,-2432.5,-262.5,-12477.5
-24.77,368.68,929.88,-1767.5,-717.5,-8662.5
-33.67,365.39,932.2,-157.5,367.5,-2992.5
-41.48,362.83,934.03,1137.5,1645.0,1680.0
-48.07,361.0,935.01,2187.5,1190.0,4865.0
-53.68,359.78,935.13,2782.5,52.5,7175.0
-58.19,358.8,935.01,2887.5,-350.0,9485.0
-61.61,358.07,935.01,2485.0,245.0,11795.0
-64.17,357.58,935.01,2047.5,1085.0,13597.5
-66.25,357.09,935.13,2782.5,350.0,15137.5
-67.83,356.85,935.01,3482.5,-1102.5,16835.0
-68.69,356.73,934.76,3622.5,-892.5,18497.5
-68.69,356.97,934.76,3325.0,227.5,20107.5
-67.59,357.58,934.4,3972.5,-175.0,21000.0
-65.88,358.68,933.54,4077.5,-1155.0,20930.0
-64.05,359.66,932.81,3010.0,-927.5,20650.0
-62.46,360.39,932.32,2362.5,-700.0,21315.0
-60.76,361.12,932.2,3622.5,-1592.5,22557.5
-58.07,362.1,931.59,4392.5,-2240.0,22995.0
-55.14,363.32,930.62,3902.5,-2415.0,22592.5
-52.46,364.41,929.64,3062.5,-2362.5,22505.0
-49.65,365.27,928.91,2730.0,-2082.5,22995.0
-46.85,366.24,928.42,2922.5,-2012.5,23310.0
-44.16,367.22,927.93,3220.0,-2572.5,23520.0
-41.48,368.2,927.2,3150.0,-3080.0,23870.0
-38.31,369.05,926.71,2327.5,-2502.5,24272.5
-34.77,369.9,926.71,2292.5,-2187.5,24377.5
-31.11,371.0,926.71,2852.5,-2607.5,24167.5
-27.33,372.1,926.71,3237.5,-3027.5,24167.5
-23.3,373.08,926.59,3412.5,-2485.0,24237.5
-19.28,373.93,926.47,3185.0,-1942.5,24325.0
-15.25,374.78,926.47,3255.0,-1732.5,24220.0
-11.1,375.64,926.22,3255.0,-1627.5,23870.0
-7.2,376.49,926.1,3605.0,-2240.0,23747.5
-3.17,377.35,925.74,4165.0,-2677.5,23905.0
1.22,378.57,925.25,3762.5,-1942.5,23642.5
5.86,379.91,924.76,3027.5,-1312.5,22942.5
10.37,381.13,924.27,2940.0,-1557.5,22365.0
14.76,382.1,924.52,2922.5,-1067.5,22050.0
19.03,383.08,924.88,3482.5,-525.0,21945.0
23.06,384.06,925.0,4637.5,-1015.0,21770.0
27.21,385.15,924.64,4847.5,-910.0,21350.0
31.35,386.25,924.15,4375.0,-227.5,21297.5
35.5,387.35,923.3,4532.5,-315.0,20877.5
39.77,388.81,921.95,4532.5,-1767.5,19565.0
43.8,390.16,920.61,3955.0,-2327.5,18760.0
47.95,391.13,919.88,2817.5,-595.0,18357.5
51.73,392.11,919.27,2660.0,-35.0,17990.0
55.27,393.08,918.42,3430.0,-1225.0,17430.0
58.68,394.06,917.68,3412.5,-1925.0,16695.0
61.85,394.55,917.2,2345.0,-945.0,16257.5
64.42,395.04,917.2,2275.0,-420.0,16362.5
66.98,395.4,917.2,2975.0,-857.5,16537.5
69.78,395.89,917.2,3307.5,-1032.5,16257.5
72.35,396.5,916.95,3430.0,-1067.5,15872.5
74.66,396.99,916.59,3395.0,-980.0,15925.0
77.1,397.48,916.22,3132.5,-332.5,16082.5
79.79,398.09,915.98,3412.5,-52.5,16135.0
82.59,398.94,915.24,3990.0,-612.5,15855.0
85.4,399.92,913.9,4042.5,-1190.0,15347.5
88.45,400.89,912.19,3255.0,-945.0,15225.0
91.74,401.87,910.73,1330.0,-105.0,14227.5
94.92,402.6,909.88,630.0,-525.0,13090.0
97.72,402.84,910.12,1102.5,-1242.5,12477.5
100.28,402.97,910.85,1575.0,-735.0,12582.5
102.72,403.09,911.58,2537.5,-350.0,12775.0
105.29,403.58,911.46,3150.0,-822.5,12565.0
107.97,404.19,910.85,3080.0,-1085.0,11847.5
110.41,404.8,910.12,2730.0,-1172.5,11130.0
112.61,405.04,909.63,1855.0,-507.5,10780.0
114.44,405.04,909.27,1820.0,-297.5,10745.0
115.9,405.04,908.78,2590.0,-1190.0,10990.0
117.61,405.28,908.29,2765.0,-1295.0,11200.0
119.8,405.77,907.8,2222.5,-787.5,11042.5
122.49,406.38,907.19,1907.5,-875.0,10535.0
125.42,407.24,906.58,2065.0,-1417.5,9852.5
128.83,408.21,905.85,1802.5,-1435.0,8872.5
132.49,409.19,905.24,1785.0,-1557.5,7945.0
136.64,410.16,904.39,1837.5,-1155.0,6877.5
141.28,411.63,903.29,1470.0,-822.5,5530.0
146.4,413.09,902.07,752.5,-752.5,4095.0
151.52,414.56,900.85,-227.5,-857.5,1732.5
155.92,415.78,899.87,-402.5,-1907.5,-262.5
160.06,417.0,899.38,-857.5,-1540.0,-2345.0
163.97,418.09,898.65,-1470.0,-945.0,-4725.0
167.14,419.07,897.92,-2117.5,-1137.5,-6720.0
169.58,419.68,897.19,-2397.5,-1977.5,-8715.0
171.41,420.05,896.7,-2555.0,-2292.5,-10185.0
172.75,420.05,896.46,-3815.0,-1295.0,-11217.5
173.48,419.8,896.58,-4567.5,-700.0,-12145.0
173.48,419.19,897.07,-4217.5,-1067.5,-12757.5
173.12,418.58,897.92,-3640.0,-1382.5,-13265.0
172.51,417.97,898.65,-3167.5,-1470.0,-13790.0
171.65,417.36,899.38,-3237.5,-1207.5,-14105.0
170.68,416.75,899.99,-3395.0,-910.0,-14542.5
169.58,416.02,900.85,-3657.5,-210.0,-15050.0
168.24,415.29,901.82,-3412.5,157.5,-15225.0
166.41,414.19,902.68,-2642.5,-332.5,-15312.5
164.46,413.34,903.29,-1925.0,-892.5,-15277.5
162.5,412.6,903.29,-2047.5,-560.0,-15382.5
160.43,411.87,902.8,-2537.5,-787.5,-15540.0
158.11,411.02,902.19,-3097.5,-1242.5,-15592.5
156.04,410.16,902.07,-3710.0,-542.5,-15242.5
154.09,409.68,902.07,-3937.5,35.0,-15015.0
152.26,409.31,902.07,-3867.5,-87.5,-15120.0
150.67,408.94,901.95,-4550.0,-665.0,-15610.0
149.08,408.58,902.43,-5092.5,-1085.0,-16415.0
147.25,407.72,903.78,-4987.5,-787.5,-16537.5
145.18,406.75,905.73,-4550.0,210.0,-16135.0
143.11,405.77,907.31,-3500.0,192.5,-16187.5
140.79,404.92,908.41,-2572.5,-560.0,-15942.5
138.59,404.19,909.14,-2607.5,-525.0,-16030.0
136.4,403.33,909.88,-3290.0,227.5,-16135.0
133.83,402.23,910.97,-3132.5,420.0,-15942.5
131.03,401.14,912.07,-2590.0,525.0,-15522.5
128.1,400.16,912.93,-2047.5,455.0,-14980.0
125.29,399.06,913.29,-1925.0,437.5,-14437.5
122.73,398.33,913.78,-1942.5,595.0,-14035.0
120.29,397.72,914.02,-2222.5,1085.0,-14087.5
117.73,397.23,914.51,-1855.0,577.5,-13965.0
114.92,396.74,914.63,-1417.5,245.0,-13475.0
112.24,396.26,914.51,-1907.5,455.0,-13002.5
109.56,395.77,914.39,-2240.0,-87.5,-12792.5
107.24,395.16,914.51,-2152.5,-560.0,-12617.5
105.16,394.79,915.0,-2380.0,-140.0,-12302.5
102.97,394.3,915.73,-2747.5,735.0,-12057.5
100.77,393.94,916.71,-2082.5,612.5,-11760.0
98.82,393.57,917.32,-1522.5,367.5,-11567.5
97.11,393.08,917.68,-1382.5,542.5,-11637.5
95.4,392.84,917.93,-1715.0,892.5,-11742.5
93.45,392.47,917.81,-2030.0,595.0,-11812.5
91.5,391.99,917.93,-2047.5,280.0,-11690.0
89.67,391.5,918.42,-1907.5,350.0,-11217.5
87.96,391.13,918.66,-1872.5,735.0,-10990.0
86.62,391.01,918.9,-2012.5,875.0,-11060.0
85.4,391.01,919.15,-1767.5,612.5,-11357.5
83.94,391.13,919.15,-1697.5,367.5,-11830.0
82.59,391.13,919.15,-1907.5,87.5,-12005.0
81.13,390.89,919.39,-2257.5,577.5,-12180.0
79.67,390.64,919.64,-2240.0,700.0,-12302.5
78.08,390.28,920.0,-1837.5,192.5,-12267.5
76.62,389.91,920.25,-2135.0,210.0,-12390.0
75.15,389.55,920.86,-2257.5,542.5,-12512.5
73.44,389.06,921.47,-2187.5,752.5,-12460.0
71.74,388.57,922.32,-1942.5,910.0,-12372.5
69.78,387.96,923.17,-1365.0,1330.0,-12197.5
67.83,387.59,923.54,-997.5,1015.0,-12180.0
66.0,387.23,923.54,-647.5,157.5,-12302.5
64.17,386.98,923.3,-682.5,-17.5,-12407.5
62.34,386.62,923.05,-1627.5,840.0,-12407.5
60.15,386.01,922.81,-2520.0,1662.5,-12127.5
57.58,385.4,922.69,-2240.0,787.5,-11742.5
55.39,384.91,922.69,-1925.0,0.0,-11270.0
53.68,384.54,922.93,-2520.0,910.0,-11252.5
52.09,384.3,923.54,-2747.5,1365.0,-11532.5
50.51,384.06,924.03,-2135.0,735.0,-11532.5
49.29,384.06,924.64,-1855.0,507.5,-11987.5
47.95,384.06,925.0,-1820.0,35.0,-13020.0
46.24,383.45,925.49,-1610.0,-157.5,-12915.0
44.29,382.59,926.22,-1890.0,1102.5,-12407.5
42.33,381.86,926.83,-1715.0,1505.0,-12127.5
40.26,381.25,927.08,-1067.5,682.5,-12057.5
38.19,380.64,927.08,-1155.0,560.0,-11917.5
36.23,380.15,927.08,-1540.0,1032.5,-11690.0
34.4,379.79,927.2,-1907.5,1662.5,-11602.5
32.45,379.42,927.08,-1907.5,1435.0,-11952.5
30.26,378.93,927.08,-1855.0,507.5,-12180.0
27.57,378.2,927.32,-1470.0,35.0,-12092.5
24.64,377.22,927.57,-1540.0,210.0,-11357.5
21.47,376.0,928.3,-2100.0,1085.0,-10342.5
18.54,374.91,929.27,-1417.5,1242.5,-9240.0
15.62,374.17,929.88,-192.5,630.0,-8802.5
12.44,373.44,930.25,-385.0,367.5,-8487.5
8.91,372.34,930.86,-1400.0,1190.0,-7840.0
4.27,370.64,931.84,-787.5,1120.0,-6562.5
-0.98,368.81,932.69,402.5,490.0,-4672.5
-6.71,366.73,933.3,840.0,52.5,-2380.0
-12.2,364.9,933.79,630.0,105.0,175.0
-17.08,363.32,934.4,1032.5,-70.0,2852.5
-20.98,362.22,935.01,2205.0,-315.0,5040.0
-23.91,361.61,935.13,2590.0,-245.0,6562.5
-26.11,361.36,934.89,2537.5,-507.5,7805.0
-27.69,361.0,934.64,2607.5,-437.5,8942.5
-29.04,360.88,934.28,2625.0,-105.0,10080.0
-29.77,360.88,933.42,2642.5,-437.5,11217.5
-29.77,361.12,932.57,2222.5,-892.5,11935.0
-29.28,361.61,931.96,1802.5,-1207.5,12110.0
-28.43,361.97,931.71,1872.5,-1470.0,12635.0
-27.21,362.34,931.59,1925.0,-1382.5,13055.0
-25.86,362.95,931.59,1435.0,-962.5,13072.5
-24.4,363.56,931.96,1820.0,-1225.0,13160.0
-23.06,363.93,932.57,2765.0,-1295.0,13667.5
-21.59,364.41,932.81,2835.0,-577.5,14140.0
-20.25,364.9,932.45,2870.0,-735.0,14210.0
-18.79,365.51,931.84,3010.0,-1680.0,14420.0
-17.08,366.24,931.35,2660.0,-1715.0,14700.0
-15.25,366.85,930.98,2205.0,-1067.5,14735.0
-13.42,367.59,930.62,2030.0,-1067.5,14857.5
-11.83,368.2,930.37,2345.0,-1680.0,14840.0
-10.13,368.68,930.25,2765.0,-2030.0,15295.0
-8.17,369.17,930.13,2625.0,-1137.5,15697.5
-6.34,369.78,929.88,2275.0,-735.0,15715.0
-4.39,370.39,929.64,2677.5,-1750.0,15785.0
-2.2,371.12,929.52,2922.5,-2082.5,15872.5
0.24,371.73,929.52,2467.5,-1172.5,15802.5
2.44,372.1,929.64,2135.0,-490.0,15802.5
4.39,372.47,929.76,3097.5,-1085.0,16240.0
6.47,372.95,929.4,3762.5,-1610.0,16642.5
8.91,373.81,928.66,3377.5,-1522.5,16590.0
11.47,374.78,927.57,3167.5,-1925.0,16292.5
14.03,375.76,926.47,2817.5,-2450.0,15872.5
16.71,376.37,925.74,1907.5,-1802.5,15785.0
19.4,376.98,925.74,1802.5,-787.5,16065.0
21.96,377.71,925.98,2310.0,-787.5,16082.5
24.4,378.44,925.86,2450.0,-1592.5,15750.0
26.6,378.93,925.98,2292.5,-1365.0,15540.0
28.55,379.3,926.22,2397.5,-717.5,15942.5
30.5,379.54,926.22,3185.0,-1312.5,16327.5
32.45,379.91,925.98,3185.0,-1645.0,16380.0
34.65,380.15,926.1,2572.5,-805.0,16695.0
37.33,380.64,926.47,3115.0,-350.0,17027.5
40.14,381.37,926.1,3780.0,-875.0,16642.5
43.07,382.23,925.37,3867.5,-1732.5,15977.5
46.12,382.96,924.52,3237.5,-1347.5,15697.5
49.04,383.69,923.78,2432.5,-402.5,15610.0
51.85,384.42,923.05,2502.5,-980.0,15417.5
54.53,385.03,922.69,2677.5,-1435.0,14997.5
57.22,385.4,922.56,2380.0,-927.5,14997.5
59.54,385.76,922.56,2292.5,-175.0,15032.5
61.73,386.13,922.56,2922.5,-560.0,15015.0
63.81,386.5,922.69,3412.5,-1032.5,15102.5
66.12,387.23,922.56,3727.5,-472.5,14962.5
68.32,387.96,921.83,3447.5,-420.0,14840.0
70.52,388.45,921.1,3062.5,-1155.0,14700.0
72.96,388.94,920.73,2642.5,-735.0,14665.0
75.15,389.18,920.49,2625.0,-770.0,14000.0
77.23,389.18,920.49,3097.5,-1522.5,14385.0
79.79,389.55,920.49,3762.5,-770.0,15120.0
83.08,390.28,919.88,4112.5,-437.5,14945.0
86.74,391.62,918.29,3587.5,-1732.5,13632.5
90.28,392.96,917.07,2747.5,-2485.0,11707.5
93.33,393.82,916.34,2310.0,-2100.0,10972.5
95.77,394.3,915.85,1925.0,-1102.5,11060.0
97.97,394.55,915.49,1312.5,-140.0,11270.0
100.04,394.91,915.24,1172.5,-70.0,10850.0
101.75,395.16,915.0,1960.0,-1225.0,10605.0
103.58,395.65,914.76,2397.5,-1312.5,10745.0
105.41,396.01,914.27,1662.5,-245.0,10622.5
107.36,396.38,913.78,1400.0,-367.5,10150.0
109.07,396.62,913.41,1505.0,-1067.5,9695.0
110.53,396.74,913.17,1890.0,-1365.0,9712.5
112.24,396.87,912.93,1575.0,-682.5,10132.5
114.19,396.99,912.8,1050.0,87.5,10220.0
117.0,397.6,913.05,1820.0,-280.0,9922.5
120.54,398.7,912.8,2730.0,-822.5,9187.5
125.42,400.4,912.32,2467.5,-332.5,8032.5
131.15,402.36,911.58,2432.5,227.5,6195.0
137.13,404.55,910.24,1855.0,-17.5,3290.0
142.98,406.5,908.53,822.5,-1137.5,17.5
148.47,408.09,907.19,-52.5,-1085.0,-2590.0
153.6,409.31,906.22,-1172.5,-52.5,-4620.0
158.11,410.53,905.24,-1592.5,-70.0,-6825.0
162.26,411.75,904.26,-2030.0,-472.5,-9572.5
165.43,412.73,903.53,-3115.0,-962.5,-12162.5
167.38,413.21,903.53,-3727.5,-910.0,-14157.5
168.48,413.09,904.26,-3342.5,-735.0,-15347.5
168.6,412.48,905.0,-3027.5,-210.0,-16065.0
168.12,411.75,905.73,-2852.5,245.0,-16607.5
166.77,410.9,906.34,-2730.0,350.0,-16992.5
164.7,409.8,906.83,-2660.0,52.5,-17220.0
162.02,408.82,907.19,-2327.5,-245.0,-17220.0
159.33,407.72,907.68,-1872.5,-105.0,-16817.5
156.4,406.87,907.92,-2292.5,542.5,-16730.0
153.23,406.14,908.17,-2607.5,262.5,-16835.0
149.82,405.04,908.78,-2450.0,35.0,-16572.5
146.28,403.82,909.63,-2345.0,840.0,-15785.0
142.86,402.6,910.36,-1872.5,1102.5,-14997.5
139.81,401.87,910.85,-1470.0,525.0,-14892.5
136.64,401.01,911.22,-1627.5,525.0,-14665.0
133.59,400.28,911.71,-1925.0,1225.0,-14192.5
130.54,399.55,911.95,-1487.5,787.5,-13667.5
127.98,399.06,912.07,-752.5,105.0,-13317.5
125.78,398.94,911.71,-1277.5,665.0,-13475.0
123.71,398.7,911.34,-2240.0,735.0,-13475.0
122.0,398.45,911.58,-2782.5,682.5,-13370.0
120.54,398.45,912.07,-2205.0,420.0,-13842.5
118.83,398.45,912.68,-1995.0,17.5,-14192.5
117.12,398.45,913.05,-1575.0,-280.0,-14367.5
115.41,398.21,913.54,-1697.5,175.0,-14507.5
113.58,397.72,914.02,-1820.0,647.5,-14350.0
111.63,397.23,914.39,-1907.5,1172.5,-14280.0
109.56,396.74,914.51,-1715.0,647.5,-14385.0
107.36,396.38,914.76,-1925.0,87.5,-14542.5
104.92,396.01,915.24,-2362.5,455.0,-14612.5
102.24,395.28,915.85,-2117.5,770.0,-14140.0
99.55,394.67,916.22,-1382.5,367.5,-13510.0
97.36,394.3,916.59,-1190.0,245.0,-13300.0
95.04,394.06,916.71,-1120.0,455.0,-13317.5
92.84,394.06,916.59,-1505.0,280.0,-13545.0
90.52,394.06,916.59,-2065.0,157.5,-13772.5
88.21,393.57,916.95,-2187.5,542.5,-13527.5
85.77,392.96,917.44,-1942.5,1015.0,-12985.0
83.2,392.6,917.68,-1785.0,122.5,-12915.0
80.76,392.23,918.17,-1872.5,-612.5,-13002.5
78.32,391.62,919.15,-1697.5,-210.0,-12705.0
75.76,391.13,919.88,-910.0,70.0,-11917.5
73.44,390.77,920.0,-875.0,52.5,-11462.5
71.49,390.64,919.76,-1487.5,350.0,-11655.0
69.54,390.4,919.64,-2012.5,210.0,-11952.5
67.34,390.16,919.64,-2030.0,-577.5,-11812.5
65.27,389.79,919.76,-1855.0,-1032.5,-11690.0
63.2,389.42,919.88,-1540.0,-1347.5,-11445.0
61.37,388.94,920.12,-1505.0,-1435.0,-11007.5
59.9,388.69,920.49,-2485.0,-192.5,-10640.0
58.44,388.45,921.22,-2520.0,612.5,-10692.5
56.85,388.2,921.95,-1645.0,-35.0,-10885.0
55.14,387.84,922.69,-927.5,-595.0,-10710.0
53.19,387.47,923.05,-1190.0,-175.0,-10465.0
51.24,386.98,923.66,-1785.0,560.0,-10342.5
48.56,386.13,924.27,-1312.5,175.0,-9992.5
45.38,385.15,925.0,-1120.0,-17.5,-9345.0
41.36,383.81,925.98,-1242.5,665.0,-8277.5
36.72,382.1,926.96,-787.5,560.0,-6475.0
31.96,380.52,927.69,210.0,-52.5,-5127.5
26.6,378.81,928.18,595.0,-682.5,-3412.5
21.23,377.1,928.66,927.5,-385.0,-157.5
16.84,375.76,928.79,1190.0,647.5,2345.0
13.42,375.15,928.54,1400.0,227.5,4112.5
10.86,374.91,928.18,1487.5,-560.0,4882.5
8.78,374.78,928.05,1225.0,-560.0,5775.0
7.08,374.54,928.18,875.0,-507.5,7122.5
6.1,374.3,928.79,1102.5,-297.5,8137.5
5.61,374.17,929.76,2030.0,-455.0,8977.5
5.61,374.3,930.37,3150.0,-857.5,9695.0
6.22,374.54,930.62,3307.5,-682.5,9975.0
7.2,375.03,930.37,3115.0,-875.0,10325.0
8.54,375.52,930.37,2887.5,-420.0,10185.0
9.52,376.0,930.37,3115.0,-192.5,10062.5
10.13,376.13,930.13,2992.5,385.0,10517.5
10.25,376.13,929.52,3132.5,-735.0,11620.0
10.37,376.25,928.66,3360.0,-1750.0,12127.5
10.49,376.49,927.81,2485.0,-1662.5,12547.5
10.49,376.74,926.96,1732.5,-1767.5,13212.5
10.37,376.74,926.71,1435.0,-1802.5,14262.5
10.74,376.98,927.2,1470.0,-665.0,15575.0
11.83,377.35,927.93,2415.0,-297.5,15942.5
12.93,377.71,928.42,3325.0,-1172.5,16327.5
14.03,377.96,928.66,3675.0,-1557.5,17255.0
15.74,378.32,928.79,4025.0,-1382.5,18182.5
18.3,379.18,928.54,4042.5,-927.5,18357.5
21.47,380.15,927.93,3360.0,-647.5,18112.5
24.64,381.13,927.32,3115.0,-315.0,17640.0
27.57,382.1,926.47,3395.0,-1120.0,17342.5
30.26,382.71,925.74,3027.5,-1347.5,16957.5
32.7,383.2,925.13,2905.0,-1312.5,17167.5
35.62,383.69,924.76,2922.5,-927.5,17692.5
38.8,384.54,924.27,3220.0,-980.0,17622.5
42.21,385.52,923.66,2782.5,-1155.0,17132.5
45.75,386.74,923.17,2152.5,-840.0,16362.5
48.56,387.47,922.69,2467.5,-1855.0,15925.0
51.36,388.08,922.56,3290.0,-2782.5,16257.5
54.41,388.45,922.69,2905.0,-770.0,16345.0
57.58,389.3,922.69,2957.5,-227.5,16257.5
61.0,390.28,922.56,3167.5,-822.5,15330.0
64.29,391.13,922.32,3377.5,-1050.0,14857.5
67.59,392.23,922.08,3220.0,-262.5,14455.0
71.0,393.21,921.22,3027.5,-315.0,13615.0
74.3,394.06,920.25,2380.0,-612.5,12862.5
77.1,394.67,919.64,2170.0,-560.0,12232.5
79.54,395.04,918.78,2380.0,-997.5,12022.5
81.5,395.4,917.93,1767.5,-840.0,12127.5
83.69,395.65,917.44,980.0,-140.0,12250.0
86.13,396.13,917.44,1365.0,87.5,12372.5
89.06,396.99,917.32,2012.5,122.5,11987.5
91.99,398.21,916.59,1610.0,-87.5,10832.5
94.92,399.18,915.85,490.0,-350.0,9485.0
97.36,399.67,915.61,-630.0,577.5,8680.0
98.82,399.67,915.98,332.5,-70.0,8890.0
100.04,399.06,916.83,1382.5,70.0,9310.0
100.89,398.45,917.81,2152.5,315.0,9975.0
101.87,397.96,918.9,3570.0,280.0,10605.0
103.21,398.09,919.76,4042.5,1417.5,10640.0
104.92,398.33,920.0,3325.0,2275.0,10377.5
106.63,398.7,920.37,2047.5,3535.0,9765.0
107.85,398.82,920.49,3465.0,2782.5,9957.5
108.95,399.18,919.64,4812.5,1855.0,10097.5
110.53,399.92,917.93,5075.0,0.0,9625.0
112.73,401.01,915.98,4235.0,-840.0,8802.5
115.17,402.11,914.02,3062.5,420.0,7805.0
117.85,403.45,912.07,2345.0,-367.5,6895.0
121.27,404.92,910.12,2555.0,-980.0,5687.5
125.29,406.75,907.92,1400.0,-455.0,4200.0
129.2,408.7,905.48,52.5,-1347.5,2187.5
133.22,410.41,903.65,-857.5,-1907.5,122.5
136.76,411.87,902.31,-2782.5,-1260.0,-2082.5
139.81,412.6,901.95,-2695.0,-2887.5,-3675.0
142.5,412.85,902.92,-2310.0,-1715.0,-4830.0
144.69,413.09,904.26,-857.5,-1435.0,-5740.0
146.16,413.34,905.24,420.0,-2975.0,-6685.0
147.25,413.58,905.97,350.0,-2467.5,-7805.0
147.99,413.58,906.22,-1067.5,-1032.5,-8522.5
148.11,413.34,906.22,-1015.0,-1277.5,-9292.5
147.86,413.09,906.09,-1260.0,-2012.5,-10010.0
147.25,412.73,906.22,-1050.0,-1365.0,-10430.0
146.28,411.99,906.34,-2432.5,612.5,-9747.5
145.55,411.75,906.34,-1557.5,-577.5,-9887.5
145.06,411.63,906.34,-980.0,-1942.5,-10797.5
144.57,411.63,906.7,-2520.0,-105.0,-11410.0
143.84,411.38,907.44,-2800.0,630.0,-11550.0
142.86,411.14,908.05,-2292.5,367.5,-11620.0
142.13,411.14,908.53,-1417.5,-700.0,-12355.0
141.28,410.65,908.78,-1435.0,-560.0,-13072.5
140.3,410.16,909.14,-1767.5,105.0,-13002.5
139.08,409.68,909.39,-1977.5,752.5,-13160.0
137.62,409.43,909.27,-1960.0,-70.0,-13335.0
136.15,408.94,909.27,-2345.0,595.0,-13405.0
134.69,408.46,909.39,-3132.5,1907.5,-13422.5
133.1,407.97,909.27,-3097.5,997.5,-13895.0
131.27,407.6,909.39,-3010.0,507.5,-14402.5
129.2,407.24,909.27,-2205.0,-805.0,-14367.5
127.12,406.87,908.9,-2485.0,-735.0,-14262.5
125.17,406.5,908.53,-4427.5,822.5,-14385.0
123.1,406.02,908.78,-4165.0,52.5,-14630.0
121.02,405.41,909.14,-3867.5,420.0,-14542.5
118.83,405.04,909.27,-4462.5,1120.0,-14192.5
117.0,404.67,909.51,-4690.0,297.5,-14385.0
115.41,404.19,910.12,-4130.0,-962.5,-15172.5
113.7,403.58,911.34,-4637.5,-262.5,-16100.0
111.63,402.6,913.17,-4462.5,1015.0,-15575.0
109.31,401.5,914.76,-3255.0,1190.0,-14735.0
107.12,400.65,915.73,-1697.5,-385.0,-14647.5
105.41,399.92,916.1,-2100.0,157.5,-14770.0
103.58,399.43,916.1,-2625.0,787.5,-14962.5
101.38,398.7,915.98,-3255.0,700.0,-15050.0
98.82,397.96,915.98,-2887.5,-1102.5,-15452.5
96.38,397.23,916.71,-3010.0,-1032.5,-15575.0
93.94,396.26,917.93,-3430.0,595.0,-14997.5
91.26,395.16,919.03,-2677.5,980.0,-14280.0
88.57,394.3,919.88,-2047.5,1015.0,-13737.5
86.01,393.57,920.25,-1645.0,612.5,-13562.5
83.69,393.21,920.37,-1872.5,560.0,-13177.5
81.74,392.72,920.61,-2152.5,595.0,-13195.0
79.79,392.35,920.86,-2415.0,1032.5,-13457.5
77.59,391.74,920.86,-2397.5,402.5,-13755.0
75.27,391.13,921.1,-2625.0,-105.0,-13737.5
73.2,390.4,921.47,-2520.0,-87.5,-13230.0
71.86,390.03,921.83,-2082.5,175.0,-13020.0
70.76,389.91,922.2,-2607.5,1067.5,-13632.5
69.3,389.67,922.44,-2905.0,945.0,-14420.0
67.1,389.18,922.81,-2660.0,-17.5,-14717.5
65.15,388.33,923.54,-1942.5,-455.0,-14717.5
63.32,387.59,924.27,-682.5,-280.0,-14350.0
61.73,387.23,924.39,-2170.0,1347.5,-14070.0
60.02,386.74,924.52,-1557.5,507.5,-14420.0
57.83,386.25,924.52,-1382.5,-332.5,-14700.0
55.27,385.4,924.88,-2572.5,70.0,-14805.0
51.97,384.06,925.61,-2992.5,1452.5,-14490.0
47.82,382.47,926.59,-1470.0,2065.0,-13510.0
42.82,380.76,927.44,-437.5,-122.5,-12162.5
37.82,379.05,928.42,175.0,-437.5,-10202.5
32.82,377.71,929.27,-122.5,980.0,-8645.0
27.45,376.25,929.88,-560.0,1260.0,-7087.5
21.84,374.54,930.37,280.0,175.0,-5092.5
16.1,372.71,931.1,1417.5,-227.5,-2817.5
10.49,370.76,931.35,1785.0,-420.0,-262.5
5.25,369.05,931.96,2152.5,-1207.5,2257.5
0.73,367.95,932.81,3045.0,-1417.5,4882.5
-2.32,367.46,933.3,3220.0,-35.0,6912.5
-4.27,367.46,933.06,3202.5,-35.0,8295.0
-5.49,367.71,932.57,3045.0,-1050.0,8627.5
-6.34,367.95,931.96,2537.5,-1260.0,9135.0
-7.2,367.83,931.59,1785.0,-647.5,9940.0
-8.17,367.59,931.23,1575.0,-682.5,11182.5
-9.03,367.46,931.1,2537.5,-1925.0,12757.5
-9.03,367.46,931.23,3255.0,-1750.0,13860.0
-8.78,367.71,931.23,3517.5,-1785.0,14577.5
-8.05,368.32,931.1,4322.5,-2992.5,15137.5
-6.83,369.05,931.1,4515.0,-2887.5,15627.5
-5.12,369.9,930.62,4060.0,-1872.5,16205.0
-3.29,370.64,929.88,3535.0,-2397.5,16240.0
-1.34,371.37,929.52,3255.0,-3097.5,16012.5
0.49,371.86,929.88,2852.5,-2012.5,16432.5
2.2,372.34,930.25,3307.5,-1260.0,17465.0
4.03,372.83,930.49,4060.0,-1435.0,17815.0
5.61,373.32,930.25,4515.0,-1575.0,18147.5
7.2,373.69,929.64,4445.0,-1680.0,19075.0
9.39,374.17,928.91,4970.0,-2117.5,20457.5
12.57,375.39,927.81,4707.5,-1435.0,20090.0
15.98,376.74,926.47,3867.5,-1662.5,19372.5
19.28,378.08,925.13,3640.0,-2467.5,19075.0
22.69,379.3,924.15,3710.0,-2345.0,19075.0
26.35,380.52,923.42,3307.5,-2047.5,18970.0
30.13,381.62,923.3,2852.5,-980.0,18847.5
34.16,382.35,924.76,3885.0,3465.0,19670.0
37.94,382.96,926.59,4147.5,10552.5,21875.0
41.72,384.18,927.2,3675.0,15907.5,22312.5
45.51,385.76,926.59,227.5,17657.5,20965.0
49.29,387.11,925.49,-1032.5,15977.5,18585.0
51.97,388.2,924.03,-560.0,10920.0,16992.5
54.17,389.42,923.05,-1365.0,7647.5,16030.0
56.36,390.4,922.2,-3850.0,8890.0,15365.0
58.32,391.5,921.1,-5740.0,9537.5,14122.5
59.9,392.23,919.64,-6212.5,5775.0,12180.0
61.0,392.47,918.17,-4427.5,175.0,11200.0
62.22,392.6,917.2,-4410.0,-2152.5,10412.5
63.56,392.47,917.44,-4025.0,-1715.0,9800.0
64.29,392.11,918.54,-2520.0,402.5,9957.5
63.68,390.4,920.25,-3482.5,8837.5,12530.0
64.17,389.42,920.25,-6527.5,9572.5,15540.0
66.61,389.91,919.51,-4322.5,3570.0,13247.5
68.56,389.91,919.88,-2135.0,1400.0,11217.5
70.27,389.91,920.0,35.0,-682.5,10465.0
72.22,389.79,920.12,980.0,-1855.0,10237.5
74.42,390.03,919.64,1242.5,-3727.5,9152.5
77.1,390.52,919.27,1260.0,-6195.0,7000.0
80.28,390.89,919.64,227.5,-5390.0,5565.0
83.33,391.01,920.37,-367.5,-2695.0,4742.5
86.38,391.13,920.98,-420.0,-525.0,5127.5
89.79,391.74,921.22,315.0,-525.0,3500.0
93.7,392.35,921.59,525.0,-1645.0,1190.0
96.87,392.6,922.2,122.5,-140.0,-752.5
99.31,392.47,923.3,682.5,1242.5,-1435.0
101.26,392.11,924.27,1802.5,2852.5,-1855.0
102.85,391.99,924.64,2992.5,2380.0,-2677.5
103.94,392.11,924.03,4497.5,-910.0,-3815.0
104.19,392.72,921.71,6282.5,-8015.0,-6247.5
103.7,393.82,917.44,9817.5,-23555.0,-10360.0
104.19,394.79,913.66,12547.5,-38850.0,-15452.5
104.43,390.77,915.85,7630.0,-33670.0,-12460.0
106.75,389.67,920.25,-7612.5,-385.0,612.5
110.9,394.55,921.1,-6842.5,9905.0,-8645.0
112.0,394.79,920.25,-5372.5,10780.0,-10850.0
112.24,394.55,918.42,-3570.0,1277.5,-10062.5
113.46,395.65,917.2,-1802.5,-5915.0,-13037.5
114.68,396.01,918.17,-1085.0,-3412.5,-14857.5
115.17,396.26,919.64,-525.0,-227.5,-15505.0
115.41,396.26,920.37,-52.5,2012.5,-16397.5
115.05,395.65,920.61,-2800.0,4865.0,-16117.5
113.95,394.91,920.25,-3325.0,3972.5,-16292.5
112.24,394.06,919.39,-1592.5,-2520.0,-16730.0
110.17,393.33,918.54,1452.5,-10535.0,-17797.5
107.85,392.72,917.93,3132.5,-15645.0,-18340.0
105.65,392.35,918.42,3167.5,-17465.0,-18742.5
103.94,391.86,919.64,-35.0,-12425.0,-19687.5
102.6,390.64,920.98,-647.5,-8697.5,-18375.0
101.26,389.79,922.81,-1452.5,-3325.0,-16292.5
99.67,389.42,924.27,-2572.5,857.5,-14805.0
98.33,389.42,925.25,-3062.5,1645.0,-14962.5
97.11,389.42,925.37,-1785.0,-70.0,-15925.0
95.65,388.81,924.76,-1207.5,-2905.0,-15732.5
94.18,388.45,924.27,595.0,-6282.5,-15435.0
92.6,388.33,924.39,1960.0,-6667.5,-15452.5
91.01,387.96,925.49,175.0,-1067.5,-14717.5
88.82,387.47,926.35,-2257.5,4007.5,-13457.5
86.38,386.74,925.98,-1837.5,1767.5,-12722.5
84.06,386.37,925.74,-227.5,-1942.5,-12530.0
82.11,386.01,925.61,892.5,-3220.0,-12477.5
80.28,385.76,925.25,1417.5,-3412.5,-11777.5
78.81,385.89,924.39,1645.0,-3920.0,-11287.5
77.47,386.13,923.78,997.5,-4077.5,-11532.5
75.88,386.01,923.91,-962.5,-1435.0,-11952.5
73.57,385.4,924.52,-2345.0,2065.0,-10517.5
71.37,384.91,924.76,-927.5,945.0,-8697.5
69.91,385.03,924.52,262.5,-875.0,-8452.5
68.56,385.4,923.91,-262.5,-1872.5,-8977.5
66.86,385.52,923.42,-525.0,-2800.0,-8995.0
64.9,385.4,923.3,647.5,-4357.5,-8120.0
63.44,385.28,923.05,1487.5,-5022.5,-7140.0
62.34,385.52,922.81,1032.5,-4322.5,-7157.5
60.76,385.28,922.56,-140.0,-3395.0,-7035.0
58.56,384.91,922.69,-297.5,-4007.5,-6125.0
55.88,384.18,923.17,647.5,-5320.0,-4900.0
53.19,383.32,923.78,1207.5,-6090.0,-3675.0
50.26,382.35,924.64,1540.0,-5757.5,-2152.5
47.21,381.37,925.98,2135.0,-4830.0,-35.0
44.16,380.52,927.08,2660.0,-3832.5,2310.0
41.48,379.91,928.05,3150.0,-2835.0,4217.5
39.04,379.18,928.91,3202.5,-1382.5,6055.0
37.09,378.57,929.64,3027.5,-17.5,7945.0
35.14,378.2,930.13,3290.0,752.5,9625.0
33.55,377.71,930.13,4235.0,122.5,11602.5
32.7,377.47,929.88,4147.5,122.5,13475.0
32.57,377.47,930.13,3727.5,752.5,14647.5
32.94,377.96,930.37,4515.0,945.0,15487.5
33.67,378.69,930.13,5005.0,1347.5,16187.5
35.01,379.42,929.52,4585.0,2082.5,16887.5
36.48,380.15,928.42,4410.0,1172.5,17570.0
38.19,380.76,927.2,4987.5,-525.0,17885.0
39.89,381.49,926.35,5005.0,-1207.5,17972.5
41.11,381.98,925.74,4620.0,-1015.0,18445.0
42.21,382.23,925.37,4515.0,192.5,19810.0
43.43,382.59,925.0,4707.5,945.0,21297.5
45.26,383.32,924.15,4340.0,1645.0,22032.5
47.34,384.06,923.42,3955.0,1417.5,22295.0
49.65,384.79,922.81,4655.0,595.0,22785.0
52.22,385.52,921.95,5337.5,-437.5,23292.5
55.14,386.37,921.34,5372.5,-490.0,23695.0
58.44,387.23,920.98,4672.5,612.5,23747.5
62.22,388.33,920.86,4620.0,1680.0,24045.0
66.49,389.67,920.61,4882.5,2450.0,23800.0
70.64,391.01,919.76,4900.0,2047.5,23030.0
74.3,392.23,918.54,5320.0,280.0,22557.5
78.32,393.33,917.32,6090.0,-1610.0,22277.5
82.59,394.43,916.34,5810.0,-1102.5,21892.5
86.99,395.65,915.24,4690.0,280.0,21105.0
91.26,396.87,914.27,4025.0,875.0,20632.5
95.4,398.21,913.05,3780.0,577.5,20125.0
99.67,399.43,911.95,3150.0,840.0,19197.5
103.82,400.65,910.97,2782.5,1190.0,18515.0
108.09,401.62,910.24,2747.5,1400.0,18305.0
112.48,402.72,909.63,2432.5,1960.0,17780.0
116.88,404.19,909.02,2537.5,1645.0,16432.5
121.63,405.65,908.41,2170.0,1785.0,14752.5
126.27,406.99,907.92,1207.5,3167.5,13300.0
131.03,408.21,907.56,1452.5,3465.0,12547.5
135.91,409.68,906.7,2047.5,2835.0,11217.5
140.79,411.38,905.61,997.5,2782.5,8960.0
145.18,412.85,904.63,297.5,2555.0,7035.0
149.33,413.95,904.14,157.5,3395.0,5722.5
153.23,415.04,903.53,-402.5,5372.5,4357.5
156.77,416.02,902.31,-595.0,4830.0,3255.0
160.31,417.12,901.09,-87.5,3430.0,2450.0
163.72,418.46,899.63,-647.5,1505.0,-227.5
166.9,419.68,898.65,-1382.5,-105.0,-2817.5
169.34,420.17,898.41,-2327.5,1750.0,-3990.0
170.8,420.41,898.41,-2852.5,3010.0,-4760.0
172.02,420.66,898.29,-2835.0,2030.0,-6387.5
172.87,420.66,898.53,-3115.0,2415.0,-7752.5
173.12,420.17,899.38,-3605.0,4585.0,-8382.5
172.87,419.8,900.36,-3640.0,6825.0,-8610.0
172.02,419.44,900.85,-3605.0,6685.0,-9485.0
170.56,419.19,900.85,-4042.5,5442.5,-10815.0
168.73,418.7,900.73,-3255.0,2572.5,-12005.0
166.77,417.97,900.48,-2555.0,-105.0,-12985.0
164.7,417.24,900.48,-2695.0,-770.0,-13685.0
162.02,416.51,900.73,-3290.0,105.0,-13650.0
158.97,415.53,900.73,-3640.0,367.5,-13195.0
155.67,414.43,900.36,-4025.0,-245.0,-12705.0
152.5,413.21,900.24,-5197.5,-140.0,-12670.0
149.08,411.38,900.97,-5652.5,2012.5,-11620.0
145.79,409.8,902.19,-4217.5,3150.0,-9887.5
142.86,408.7,903.17,-3745.0,2537.5,-8977.5
140.54,407.97,904.02,-4095.0,997.5,-9135.0
138.71,407.6,905.0,-3850.0,-2240.0,-10132.5
137.13,406.99,906.22,-3482.5,-3867.5,-10727.5
135.66,406.26,907.44,-4147.5,-3045.0,-11252.5
134.08,405.41,908.41,-5302.5,-2065.0,-11252.5
132.25,404.31,909.27,-6370.0,-1452.5,-11497.5
130.3,403.21,910.49,-6912.5,140.0,-11462.5
128.47,401.99,911.83,-6527.5,1050.0,-11357.5
126.64,400.89,913.17,-4812.5,735.0,-11165.0
124.93,400.04,914.39,-2660.0,122.5,-11007.5
123.59,399.06,915.37,-1190.0,-210.0,-10850.0
122.12,398.45,915.73,-472.5,17.5,-10447.5
120.66,398.09,915.24,-332.5,-1592.5,-11410.0
119.07,397.48,914.63,-1417.5,-4270.0,-11707.5
117.36,397.11,914.15,-2572.5,-5530.0,-12477.5
115.9,396.74,914.02,-3657.5,-6352.5,-13090.0
114.44,396.01,914.27,-3605.0,-7892.5,-13282.5
113.34,395.16,914.76,-3325.0,-8032.5,-13212.5
112.36,394.55,915.0,-3885.0,-7227.5,-13335.0
111.26,393.82,915.0,-5355.0,-6440.0,-13597.5
110.29,392.84,915.24,-5757.5,-6055.0,-12862.5
109.19,391.99,915.61,-5740.0,-5337.5,-12722.5
108.09,391.38,915.85,-7350.0,-4182.5,-13440.0
106.51,390.4,916.1,-8802.5,-5337.5,-14245.0
104.55,388.69,916.95,-8102.5,-5722.5,-14035.0
102.48,386.98,918.54,-7560.0,-4375.0,-13072.5
100.41,384.91,920.73,-5757.5,-1365.0,-10972.5
98.45,383.08,923.17,-3867.5,1365.0,-9170.0
96.62,381.49,925.13,-2502.5,2257.5,-8400.0
94.92,380.27,926.35,-1750.0,1102.5,-8137.5
93.45,379.66,926.71,-1802.5,-1505.0,-8785.0
92.48,379.3,926.59,-1855.0,-5477.5,-10150.0
91.5,378.44,926.71,-962.5,-7595.0,-10850.0
90.16,377.1,927.44,-52.5,-5967.5,-9450.0
88.94,376.0,927.93,-70.0,-2432.5,-7717.5
88.08,375.03,927.93,-1452.5,-1225.0,-7105.0
87.23,374.3,927.69,-1487.5,-2012.5,-7000.0
86.74,373.93,927.32,-1960.0,-4532.5,-7612.5
86.5,373.56,927.57,-1977.5,-4147.5,-7787.5
86.13,373.08,928.18,-2380.0,-2660.0,-7472.5
85.64,372.47,928.3,-2975.0,-2415.0,-7227.5
84.91,371.61,928.79,-2835.0,-3657.5,-7350.0
83.94,370.76,929.4,-1697.5,-3902.5,-7385.0
82.84,369.54,929.76,-1592.5,-5075.0,-7332.5
81.01,368.2,930.49,-1470.0,-5355.0,-6422.5
78.81,366.73,932.08,-1925.0,-4550.0,-5127.5
76.49,365.02,935.01,-1470.0,840.0,-3220.0
73.44,363.19,937.94,-665.0,7770.0,-1890.0
68.81,361.0,939.77,-402.5,10150.0,2327.5
64.42,359.29,940.38,1452.5,9345.0,6037.5
60.76,357.83,940.13,2695.0,5827.5,7367.5
57.46,356.48,939.16,3500.0,1540.0,8382.5
54.66,355.39,937.94,3955.0,-2485.0,9485.0
52.22,354.41,937.69,3815.0,-4270.0,11182.5
50.51,353.43,938.42,4077.5,-2502.5,13562.5
49.53,352.82,939.28,4375.0,-70.0,15347.5
49.04,352.46,939.64,4690.0,1260.0,16625.0
48.92,352.46,939.52,3937.5,2677.5,17587.5
49.29,352.34,939.16,3132.5,3097.5,18532.5
49.9,352.09,938.79,3465.0,2030.0,19547.5
51.0,352.09,938.42,4182.5,682.5,20300.0
52.46,352.34,938.18,4585.0,-140.0,20492.5
54.17,352.58,937.81,4970.0,-945.0,20702.5
56.0,353.07,937.2,5810.0,-2345.0,21227.5
58.32,353.68,936.96,6125.0,-2012.5,22172.5
61.12,354.53,936.72,5617.5,105.0,22575.0
64.05,355.14,936.23,4742.5,2327.5,22592.5
66.61,355.63,935.74,4655.0,2957.5,23135.0
69.17,356.24,935.5,4987.5,3447.5,23835.0
72.22,357.22,935.25,5180.0,5792.5,23817.5
75.64,358.44,934.28,5180.0,6685.0,24010.0
79.42,359.78,932.81,6142.5,3500.0,23590.0
82.96,361.36,931.71,6177.5,2170.0,21682.5
86.38,362.58,930.13,5285.0,857.5,19827.5
89.3,363.07,929.15,4340.0,280.0,20160.0
92.11,363.56,928.66,5197.5,-52.5,21087.5
95.4,364.54,928.3,5512.5,175.0,21000.0
98.7,365.51,927.69,4812.5,-105.0,20055.0
101.75,366.49,926.71,4847.5,-1662.5,19267.5
104.68,367.22,926.22,5057.5,-3307.5,18987.5
107.48,367.95,925.98,5110.0,-3132.5,18847.5
110.65,368.56,925.74,5390.0,-2712.5,18865.0
114.19,369.54,925.49,5600.0,-2520.0,18882.5
118.34,370.88,925.0,5635.0,-2275.0,18235.0
123.1,372.59,924.03,5810.0,-2310.0,16992.5
128.22,374.42,922.93,5845.0,-2047.5,15540.0
133.22,376.13,921.34,5285.0,-1610.0,14245.0
137.86,377.83,919.88,4025.0,-997.5,12810.0
142.25,379.3,918.42,3272.5,-52.5,11375.0
146.52,380.64,917.07,2642.5,-70.0,10202.5
150.79,382.1,915.85,2520.0,-350.0,9310.0
155.18,383.57,914.76,2240.0,262.5,7962.5
159.33,385.28,913.05,2100.0,87.5,6545.0
163.6,387.11,910.85,1417.5,-1190.0,5110.0
168.24,388.94,908.9,-35.0,-2047.5,2800.0
173.12,390.89,907.68,-1610.0,-1645.0,-70.0
177.51,392.6,907.07,-2170.0,-1715.0,-2712.5
181.29,393.57,907.07,-1330.0,-2695.0,-4690.0
184.83,394.55,907.31,-315.0,-3150.0,-6317.5
188.12,395.52,907.19,-1085.0,-2345.0,-8295.0
190.93,396.26,907.07,-2065.0,-1977.5,-10202.5
193.0,396.74,906.95,-2292.5,-2450.0,-11952.5
194.47,397.11,906.46,-1907.5,-3097.5,-13212.5
195.57,397.6,905.61,-2380.0,-3062.5,-14280.0
196.79,398.45,904.14,-4112.5,-2327.5,-16082.5
197.64,399.06,902.68,-5897.5,-2327.5,-18410.0
197.88,399.06,901.46,-6702.5,-3342.5,-20002.5
197.52,398.57,901.21,-7157.5,-4095.0,-20825.0
196.54,397.6,902.07,-7717.5,-3517.5,-21192.5
194.96,396.26,903.65,-6877.5,-3832.5,-21350.0
193.37,394.67,905.48,-5827.5,-4795.0,-21420.0
191.54,393.33,907.8,-5285.0,-4900.0,-21577.5
189.59,391.99,910.0,-4235.0,-4532.5,-21682.5
187.76,390.89,911.34,-3290.0,-4812.5,-21612.5
186.42,390.16,912.07,-3447.5,-4935.0,-21910.0
184.83,389.3,912.93,-4672.5,-4480.0,-22872.5
182.76,388.33,914.39,-5302.5,-3237.5,-23572.5
180.32,387.23,915.85,-4462.5,-1662.5,-23275.0
178.24,386.25,916.46,-3657.5,-875.0,-22750.0
176.41,385.52,915.85,-4095.0,-892.5,-23275.0
174.34,385.03,914.88,-4935.0,-2205.0,-24185.0
172.02,384.3,914.02,-6072.5,-3185.0,-24535.0
169.46,383.45,914.02,-7525.0,-2922.5,-24867.5
166.65,382.35,915.0,-8015.0,-1452.5,-24395.0
163.72,381.13,916.34,-7437.5,-175.0,-23642.5
161.04,379.91,917.93,-6002.5,332.5,-23152.5
158.11,378.93,919.03,-4427.5,-210.0,-23117.5
155.18,377.83,919.51,-4270.0,-612.5,-23170.0
152.26,376.61,920.25,-4777.5,-752.5,-22890.0
149.33,375.39,921.59,-4567.5,420.0,-22277.5
146.4,374.3,922.81,-3920.0,2100.0,-21927.5
143.59,373.32,923.3,-3430.0,2117.5,-21735.0
140.54,372.59,923.54,-3360.0,927.5,-21927.5
137.49,371.86,923.78,-3657.5,507.5,-21962.5
134.08,371.0,924.15,-3762.5,682.5,-21595.0
130.54,370.15,924.64,-3080.0,420.0,-20842.5
127.12,369.17,924.76,-2642.5,70.0,-20230.0
124.07,368.68,924.64,-3167.5,420.0,-19950.0
121.15,368.2,924.52,-3675.0,157.5,-20247.5
117.85,367.71,924.27,-3622.5,-1172.5,-20370.0
114.31,366.98,924.03,-3885.0,-1995.0,-20160.0
110.65,366.0,924.64,-4462.5,-1907.5,-19687.5
106.75,364.66,925.98,-4112.5,-1820.0,-19057.5
102.24,363.07,927.57,-3325.0,-1925.0,-18427.5
96.99,361.0,929.27,-3027.5,-2065.0,-17115.0
90.89,358.8,931.23,-2537.5,-2170.0,-15155.0
84.06,356.36,933.42,-1627.5,-2275.0,-12932.5
76.62,353.68,935.74,-595.0,-2432.5,-10255.0
68.81,350.87,937.94,350.0,-2152.5,-6807.5
61.0,348.19,940.01,1330.0,-1400.0,-2887.5
54.05,346.24,941.84,2817.5,-577.5,1032.5
48.31,344.77,943.06,3920.0,402.5,4497.5
43.68,344.04,943.06,3955.0,875.0,6772.5
39.65,343.43,942.69,3255.0,35.0,8575.0
36.23,342.82,942.69,3342.5,-997.5,10640.0
33.43,342.33,942.94,4235.0,-1155.0,12670.0
31.23,341.97,943.3,4865.0,-665.0,15067.5
30.26,341.97,943.3,5355.0,-612.5,16835.0
30.38,342.33,943.18,6300.0,-1085.0,18217.5
31.48,343.19,942.57,6370.0,-805.0,18830.0
33.06,343.92,941.84,5302.5,-210.0,18917.5
34.16,344.65,941.35,4567.5,17.5,19285.0
34.89,345.02,940.99,5372.5,-647.5,20352.5
35.38,345.26,940.38,6230.0,-1400.0,21997.5
36.36,345.5,939.64,5950.0,-1435.0,23432.5
37.82,345.99,939.28,5250.0,-402.5,24587.5
39.53,346.72,939.28,6160.0,-367.5,25462.5
41.97,347.7,938.91,7490.0,-1137.5,26285.0
45.02,348.92,937.94,7577.5,-1242.5,26810.0
49.04,350.51,936.96,6352.5,157.5,26827.5
53.31,352.09,936.23,5390.0,1610.0,26565.0
57.34,353.56,935.5,5740.0,927.5,26320.0
61.37,354.78,934.89,6667.5,-822.5,26075.0
65.88,356.12,934.15,7630.0,-1610.0,26145.0
70.76,357.58,933.42,7297.5,-17.5,25900.0
75.88,359.29,932.32,6230.0,1610.0,25392.5
80.89,360.88,930.86,5722.5,1242.5,24570.0
85.52,362.46,929.27,6142.5,-560.0,23782.5
90.16,364.05,927.69,6055.0,-1400.0,23047.5
94.55,365.27,926.59,4795.0,-927.5,22347.5
98.7,366.49,925.98,4532.5,-70.0,22242.5
102.85,367.71,925.49,5285.0,87.5,22032.5
107.12,369.05,924.64,5547.5,-525.0,21507.5
111.26,370.39,923.78,4952.5,-682.5,20720.0
115.17,371.61,923.42,4375.0,-262.5,19827.5
118.71,372.59,923.3,4620.0,542.5,19792.5
122.37,373.56,922.81,5285.0,700.0,19810.0
126.15,374.78,922.08,5302.5,525.0,19022.5
129.56,376.13,921.1,5110.0,0.0,18235.0
132.61,377.47,920.25,4865.0,-332.5,17920.0
135.42,378.44,919.64,4760.0,52.5,17412.5
138.35,379.18,919.27,3955.0,1085.0,17097.5
141.28,379.54,919.15,3797.5,1697.5,17115.0
144.2,380.03,919.27,4060.0,2625.0,16940.0
147.13,380.64,919.15,4165.0,3097.5,16467.5
150.06,381.37,918.42,4987.5,2065.0,15977.5
153.48,382.35,916.95,5845.0,525.0,15417.5
157.5,383.81,915.37,5950.0,-17.5,14787.5
162.26,385.64,913.29,5460.0,-17.5,13457.5
167.38,387.59,911.1,4095.0,35.0,11532.5
172.75,389.67,909.02,2887.5,52.5,9450.0
178.36,391.86,907.31,2362.5,-52.5,7612.5
184.46,394.18,905.97,1610.0,420.0,5232.5
190.56,396.5,904.63,1225.0,472.5,2310.0
196.42,398.7,903.17,525.0,-332.5,-595.0
201.79,400.4,902.19,-1225.0,-157.5,-3605.0
205.94,401.87,902.07,-1820.0,105.0,-6352.5
209.23,402.97,901.95,-962.5,-507.5,-8312.5
211.67,403.7,901.58,-1050.0,-332.5,-9852.5
213.74,404.43,900.97,-2117.5,385.0,-11550.0
215.09,404.8,900.36,-2782.5,577.5,-13475.0
215.33,404.92,899.75,-2660.0,-647.5,-14927.5
215.21,404.8,899.26,-2467.5,-1540.0,-15645.0
214.72,404.55,899.14,-3920.0,-17.5,-16275.0
213.87,404.43,899.38,-4410.0,490.0,-16957.5
212.52,404.06,899.87,-3902.5,-367.5,-17587.5
211.3,403.82,900.36,-3517.5,-700.0,-18462.5
209.72,403.45,901.21,-3990.0,105.0,-19110.0
207.64,402.97,902.19,-3780.0,525.0,-19442.5
205.45,402.36,903.04,-3010.0,157.5,-19582.5
203.37,401.87,903.53,-2730.0,70.0,-20160.0
201.06,401.38,903.53,-3500.0,612.5,-20860.0
198.25,400.77,903.65,-4777.5,945.0,-21140.0
195.08,399.79,904.02,-4550.0,35.0,-21227.5
191.66,398.7,904.87,-4340.0,-52.5,-20895.0
188.37,397.72,905.97,-4025.0,437.5,-20650.0
185.07,396.87,906.7,-3535.0,577.5,-20545.0
181.54,396.13,907.44,-3465.0,192.5,-20370.0
178.12,395.4,908.17,-3255.0,140.0,-20335.0
174.7,394.79,908.9,-3850.0,875.0,-20352.5
170.92,394.06,909.51,-3867.5,717.5,-20125.0
167.14,393.21,910.12,-3360.0,525.0,-19635.0
163.48,392.35,910.73,-3850.0,1697.5,-19145.0
159.82,391.5,911.34,-5092.5,3500.0,-18357.5
156.28,390.64,912.07,-4847.5,2887.5,-17745.0
152.62,389.91,913.05,-3377.5,1277.5,-17640.0
149.08,389.18,914.02,-2712.5,1225.0,-17080.0
145.67,388.69,914.76,-2730.0,1522.5,-16870.0
142.01,388.08,915.24,-2975.0,1312.5,-16730.0
138.1,387.23,915.73,-2292.5,122.5,-16467.5
134.44,386.5,916.22,-2467.5,437.5,-15855.0
130.78,385.76,916.59,-3167.5,1505.0,-15067.5
127.12,385.03,916.83,-3552.5,2012.5,-14542.5
123.46,384.54,917.2,-3395.0,1575.0,-14000.0
120.05,383.93,917.56,-3062.5,962.5,-13527.5
116.63,383.45,917.93,-2817.5,595.0,-13037.5
113.34,382.84,918.42,-2975.0,857.5,-12355.0
110.29,382.47,919.03,-3272.5,1347.5,-11970.0
107.36,381.86,919.51,-3360.0,1662.5,-11760.0
104.43,381.13,920.37,-2905.0,1277.5,-11217.5
101.5,380.4,921.1,-2012.5,630.0,-10395.0
98.82,379.91,921.83,-1890.0,367.5,-9800.0
96.62,379.54,922.69,-2397.5,945.0,-9625.0
94.43,379.3,923.42,-2275.0,1697.5,-9642.5
92.35,379.05,923.78,-1662.5,1592.5,-9100.0
90.4,378.81,923.54,-962.5,-35.0,-8627.5
88.69,378.81,923.05,-910.0,-997.5,-8592.5
87.35,378.93,922.56,-1452.5,-840.0,-8820.0
85.77,378.81,922.2,-2135.0,-1190.0,-9082.5
83.94,378.32,922.44,-2992.5,-910.0,-9170.0
81.74,377.47,923.66,-3395.0,17.5,-8557.5
79.06,376.37,925.49,-2607.5,210.0,-7665.0
76.37,375.27,927.69,-1242.5,-122.5,-6825.0
73.69,374.17,929.64,-385.0,297.5,-6072.5
70.39,373.08,931.35,140.0,892.5,-5057.5
66.37,371.73,932.57,1207.5,525.0,-3762.5
61.85,370.27,933.06,1907.5,-70.0,-2047.5
57.34,368.68,933.3,2012.5,17.5,315.0
53.19,367.46,933.3,1837.5,1050.0,2502.5
49.53,366.73,932.81,2047.5,717.5,4340.0
46.36,366.24,932.08,2257.5,-595.0,6055.0
44.16,366.0,931.59,1715.0,-665.0,7315.0
42.46,365.88,931.35,1767.5,-612.5,8260.0
41.24,365.88,931.1,2537.5,-1242.5,9152.5
40.5,366.0,930.86,2397.5,-1225.0,9922.5
39.77,365.88,930.62,1715.0,-945.0,10727.5
39.53,365.76,930.86,1697.5,-1067.5,11882.5
39.77,365.76,931.23,2345.0,-1120.0,12862.5
40.87,366.24,931.71,2677.5,-822.5,13387.5
42.09,366.73,931.96,2905.0,-1120.0,13247.5
43.19,367.1,931.96,3552.5,-2152.5,13282.5
44.16,367.22,932.2,3850.0,-2170.0,13930.0
45.26,367.59,932.32,3657.5,-1067.5,14490.0
46.24,367.71,931.96,3202.5,-227.5,14840.0
46.73,367.71,931.35,3220.0,-1102.5,15487.5
47.09,367.71,931.1,3780.0,-1995.0,16590.0
48.07,367.95,930.86,4025.0,-1487.5,17797.5
50.02,368.44,930.37,3430.0,-280.0,18375.0
52.46,369.42,929.64,3010.0,-192.5,18025.0
55.02,370.39,928.91,3097.5,-1540.0,17465.0
57.46,371.25,928.42,3500.0,-2222.5,17482.5
60.02,371.86,928.18,3080.0,-1085.0,17780.0
62.46,372.22,927.93,2555.0,-192.5,17850.0
64.78,372.59,927.69,3325.0,-1207.5,18182.5
67.59,373.08,927.44,4130.0,-1820.0,18567.5
71.0,374.17,927.08,3762.5,-945.0,18077.5
74.54,375.27,926.22,3255.0,-945.0,17325.0
77.84,376.25,925.25,2905.0,-1890.0,16695.0
80.52,376.74,925.0,2712.5,-1890.0,16275.0
82.96,376.98,924.88,3062.5,-1435.0,16642.5
85.16,376.98,924.64,3675.0,-1540.0,17307.5
88.08,377.47,924.15,3395.0,-857.5,17447.5
90.89,378.2,923.54,2625.0,-420.0,16835.0
93.33,378.81,922.81,2642.5,-1610.0,16537.5
95.65,379.18,922.81,2817.5,-1785.0,16625.0
97.84,379.42,922.93,2712.5,-822.5,16695.0
99.67,379.42,922.81,3045.0,-857.5,16975.0
101.26,379.3,922.32,3395.0,-1767.5,17360.0
102.97,379.05,921.83,3395.0,-1960.0,17955.0
104.68,379.05,921.47,3675.0,-1522.5,18620.0
106.87,379.54,920.12,4060.0,-1942.5,18917.5
109.43,380.27,918.17,3395.0,-3062.5,18550.0
112.24,380.88,916.34,2135.0,-3395.0,18042.5
115.41,381.37,915.49,1522.5,-3080.0,18060.0
119.32,381.86,915.37,1610.0,-2030.0,18340.0
123.95,382.71,915.73,1452.5,-1190.0,17710.0
129.32,383.69,916.22,1925.0,-1540.0,16695.0
135.3,384.79,916.83,2677.5,-1365.0,15487.5
142.01,386.25,917.32,3325.0,-525.0,14140.0
149.57,388.08,917.2,2712.5,1050.0,11952.5
157.62,390.4,916.46,2222.5,1015.0,8627.5
165.43,392.6,915.37,2275.0,-17.5,5285.0
172.75,394.43,914.27,1872.5,-52.5,2205.0
179.34,396.01,912.8,1277.5,192.5,-665.0
184.83,397.48,910.85,577.5,-472.5,-3377.5
189.83,398.7,908.78,-367.5,-892.5,-5880.0
194.1,399.92,907.07,-1925.0,-350.0,-8330.0
197.27,400.89,905.73,-3517.5,-175.0,-10762.5
199.35,401.38,905.12,-4007.5,-752.5,-12687.5
200.32,401.38,905.48,-3657.5,-752.5,-14052.5
200.69,401.01,906.34,-3237.5,-315.0,-14752.5
200.32,400.4,907.31,-3167.5,490.0,-15312.5
199.35,399.67,908.29,-3307.5,1032.5,-15820.0
197.76,398.94,909.14,-3132.5,1225.0,-16275.0
195.81,398.09,910.0,-2905.0,1155.0,-16642.5
193.49,397.11,910.61,-2485.0,647.5,-16765.0
190.93,396.13,911.1,-2362.5,945.0,-16660.0
188.25,395.04,911.58,-2187.5,1347.5,-16467.5
185.68,394.18,912.07,-2240.0,1750.0,-16170.0
183.12,393.45,912.32,-2170.0,1662.5,-16292.5
180.68,392.96,912.07,-1785.0,770.0,-16450.0
178.36,392.47,911.83,-2117.5,892.5,-16695.0
176.17,391.99,911.34,-3097.5,1400.0,-16992.5
173.73,391.38,910.97,-3255.0,892.5,-17167.5
171.29,390.64,910.97,-3412.5,542.5,-17027.5
168.85,390.16,911.58,-3832.5,910.0,-17202.5
166.29,389.42,912.68,-3692.5,1400.0,-17097.5
163.85,388.81,914.02,-2555.0,1242.5,-16992.5
161.53,388.45,915.0,-1610.0,1330.0,-16940.0
159.33,388.08,915.37,-1715.0,1470.0,-17237.5
157.01,387.96,915.12,-2310.0,1295.0,-17692.5
154.33,387.47,915.0,-2782.5,770.0,-18182.5
151.4,386.74,915.12,-2625.0,402.5,-17902.5
148.35,385.89,915.49,-2922.5,1365.0,-17395.0
145.42,385.4,915.49,-2642.5,1207.5,-17220.0
142.5,384.91,915.24,-2257.5,-157.5,-17220.0
139.69,384.67,915.0,-3062.5,-367.5,-17395.0
136.88,384.18,915.37,-3710.0,0.0,-17465.0
134.08,383.69,916.1,-3290.0,-52.5,-17045.0
131.39,383.2,917.07,-3115.0,262.5,-16835.0
128.71,382.84,918.17,-3167.5,542.5,-17045.0
125.9,382.35,919.15,-2712.5,420.0,-17045.0
122.98,381.86,920.12,-2082.5,455.0,-16607.5
120.54,381.62,920.61,-1977.5,1155.0,-16450.0
118.22,381.37,920.61,-1960.0,1365.0,-16467.5
115.78,381.13,920.25,-2450.0,840.0,-16660.0
113.34,380.88,919.88,-3307.5,770.0,-16730.0
110.53,380.27,920.0,-3657.5,700.0,-16817.5
107.48,379.54,920.37,-3290.0,-122.5,-16572.5
104.31,378.81,920.86,-2747.5,-665.0,-16205.0
101.14,378.2,921.22,-2660.0,-787.5,-15820.0
97.84,377.47,921.59,-3605.0,-332.5,-15942.5
93.94,376.49,922.2,-3482.5,-1225.0,-15435.0
89.3,375.03,923.42,-2870.0,-1592.5,-14332.5
84.18,373.2,925.25,-2747.5,-927.5,-12810.0
78.45,371.12,927.2,-1872.5,-437.5,-10692.5
72.47,369.17,929.03,-735.0,17.5,-8400.0
66.37,367.22,930.37,-315.0,315.0,-6055.0
60.63,365.51,931.59,262.5,-17.5,-3535.0
55.27,363.93,932.69,1050.0,105.0,-1242.5
50.14,362.58,933.54,1785.0,560.0,945.0
45.38,361.24,933.79,2380.0,245.0,3552.5
41.36,360.39,933.42,2240.0,175.0,5705.0
38.19,359.78,933.06,1575.0,490.0,7315.0
35.75,359.41,932.57,1540.0,-175.0,8925.0
33.67,359.29,932.32,1890.0,-1400.0,10097.5
32.21,359.29,932.45,2187.5,-1960.0,11130.0
30.99,359.05,933.06,2502.5,-1872.5,12460.0
30.38,358.8,933.91,3220.0,-1645.0,14210.0
30.62,358.92,934.52,3552.5,-350.0,15312.5
31.23,359.29,934.52,3062.5,-140.0,15540.0
32.09,359.66,934.64,3185.0,-1015.0,16012.5
32.82,359.78,934.76,3710.0,-857.5,16765.0
33.43,359.78,934.76,4147.5,-997.5,17692.5
33.92,359.66,934.28,4497.5,-1872.5,18795.0
34.65,359.53,933.91,4760.0,-2310.0,19932.5
35.87,359.9,933.3,4585.0,-1697.5,20930.0
37.58,360.51,932.57,3797.5,-1347.5,21227.5
38.92,361.0,931.84,3465.0,-1925.0,21577.5
40.5,361.49,931.71,3850.0,-2187.5,22610.0
42.33,361.73,931.96,4305.0,-1575.0,23520.0
44.41,362.1,932.08,4567.5,-1365.0,24132.5
46.85,362.58,932.2,5232.5,-1960.0,24727.5
49.9,363.07,932.08,6055.0,-2012.5,25777.5
53.92,363.93,931.84,5652.5,-350.0,25882.5
57.95,365.02,931.1,4987.5,-262.5,25270.0
61.85,365.88,930.13,5600.0,-1995.0,25025.0
65.88,366.73,929.52,5652.5,-1785.0,24920.0
70.03,367.46,928.91,5057.5,-665.0,24972.5
74.3,368.2,928.18,5372.5,-1190.0,24955.0
78.81,369.17,927.44,6195.0,-1925.0,24780.0
83.81,370.39,926.47,5705.0,-1050.0,24430.0
89.06,371.86,925.49,4777.5,-192.5,23660.0
94.43,373.32,924.39,4462.5,-227.5,22627.5
99.31,374.66,923.54,4077.5,-157.5,21770.0
103.82,375.88,922.56,4147.5,-717.5,20947.5
108.09,376.74,921.59,4480.0,-2152.5,20265.0
112.48,377.71,920.61,4725.0,-2782.5,19845.0
117.12,378.93,919.76,3955.0,-1697.5,18970.0
121.63,380.4,919.03,3605.0,-1522.5,17972.5
126.27,381.62,918.54,4165.0,-2100.0,17237.5
131.52,383.2,918.05,4620.0,-1260.0,16415.0
137.37,385.03,916.71,4270.0,-332.5,15155.0
143.59,386.74,915.12,2800.0,-70.0,13107.5
149.94,388.69,913.66,1750.0,-455.0,10867.5
156.16,390.4,912.8,2345.0,-1312.5,8820.0
162.99,392.47,911.83,2957.5,-1505.0,6685.0
170.07,394.79,910.24,1837.5,-735.0,3815.0
176.9,397.23,908.66,-122.5,-70.0,315.0
183.0,399.31,907.31,-980.0,-472.5,-2940.0
188.0,400.65,906.58,-1417.5,-805.0,-5530.0
192.27,401.87,906.22,-1872.5,-402.5,-7735.0
195.2,402.48,905.97,-2082.5,-70.0,-9677.5
197.15,402.84,905.48,-1925.0,-787.5,-11165.0
198.13,402.97,905.12,-1907.5,-1400.0,-12565.0
198.62,402.84,905.12,-2747.5,-770.0,-13457.5
198.62,402.6,905.48,-3657.5,542.5,-14367.5
197.64,402.23,906.22,-3307.5,665.0,-14892.5
196.3,401.62,906.58,-2100.0,-315.0,-15155.0
194.83,401.14,906.7,-1977.5,-420.0,-15487.5
193.37,400.65,906.7,-3080.0,315.0,-16117.5
191.54,400.04,906.95,-3237.5,507.5,-16275.0
189.59,399.43,906.95,-2852.5,0.0,-16397.5
187.64,398.94,906.83,-2905.0,-332.5,-16572.5
185.56,398.21,906.7,-3675.0,-87.5,-16922.5
183.37,397.35,906.7,-3902.5,-420.0,-17062.5
181.29,396.5,907.44,-3920.0,-157.5,-16765.0
179.58,395.77,908.53,-3500.0,122.5,-17027.5
177.75,395.4,909.27,-2887.5,-192.5,-17430.0
175.68,395.04,909.88,-2975.0,-70.0,-17710.0
173.61,394.79,910.24,-3552.5,437.5,-18025.0
171.29,394.3,910.85,-3867.5,472.5,-18322.5
169.09,393.57,911.71,-3360.0,210.0,-18550.0
166.53,392.72,912.68,-2922.5,455.0,-18620.0
163.85,392.11,913.17,-2450.0,245.0,-18217.5
161.53,391.62,913.17,-2642.5,297.5,-18077.5
159.21,391.38,913.05,-3517.5,332.5,-18585.0
156.77,390.89,913.05,-3657.5,-280.0,-19005.0
154.21,390.28,913.29,-3587.5,-227.5,-18900.0
151.77,389.91,913.66,-3745.0,455.0,-18760.0
149.45,389.42,914.02,-4305.0,805.0,-18952.5
147.01,388.94,914.51,-4620.0,315.0,-19197.5
144.45,388.45,915.61,-3885.0,-297.5,-19425.0
141.89,387.84,916.59,-3132.5,-315.0,-19652.5
139.08,386.98,917.56,-3185.0,-87.5,-19460.0
136.15,386.25,918.66,-3482.5,805.0,-19372.5
133.22,385.52,919.51,-3097.5,1225.0,-19267.5
129.81,384.67,919.88,-2502.5,402.5,-19162.5
126.27,384.06,920.0,-2100.0,-542.5,-18620.0
122.61,383.32,919.76,-2625.0,-367.5,-18217.5
118.83,382.23,919.88,-3832.5,52.5,-17657.5
114.92,381.13,920.49,-3710.0,-385.0,-17167.5
110.78,379.91,921.34,-2887.5,-962.5,-16590.0
106.38,378.69,922.44,-2765.0,-857.5,-15452.5
102.24,377.47,923.66,-2607.5,-245.0,-14157.5
97.97,376.49,924.88,-1890.0,-192.5,-13230.0
93.57,375.52,925.74,-1242.5,-647.5,-12355.0
88.94,374.42,926.35,-1137.5,-752.5,-11200.0
84.18,373.08,927.08,-1242.5,-455.0,-9485.0
79.3,371.61,927.81,-945.0,-35.0,-7437.5
74.54,370.39,928.54,-525.0,-175.0,-5600.0
70.15,369.17,929.27,-17.5,-577.5,-3587.5
66.0,367.95,930.13,0.0,-105.0,-1995.0
61.98,367.22,930.98,367.5,157.5,-472.5
58.32,366.37,931.84,1330.0,35.0,1330.0
55.27,365.63,932.32,1610.0,420.0,3080.0
52.46,365.15,932.32,1312.5,507.5,4410.0
49.9,364.66,932.32,1680.0,-560.0,5652.5
47.7,364.17,932.45,2362.5,-1312.5,7385.0
46.12,364.05,932.57,2205.0,-472.5,8855.0
45.38,364.05,932.81,1977.5,-17.5,9905.0
45.14,364.41,932.93,2642.5,-735.0,10447.5
45.38,364.78,932.93,3115.0,-1225.0,10710.0
45.63,365.02,932.81,2730.0,-997.5,11270.0
45.75,365.27,932.69,2345.0,-490.0,12092.5
45.75,365.27,932.81,2712.5,-752.5,12862.5
45.63,365.02,932.81,3535.0,-1645.0,13877.5
45.38,364.9,932.93,3675.0,-1837.5,14805.0
45.14,364.54,933.18,3465.0,-1435.0,15872.5
44.65,364.29,933.54,3990.0,-1382.5,17447.5
45.14,364.41,933.79,4270.0,-385.0,19162.5
46.85,365.02,933.42,3692.5,595.0,19722.5
49.04,366.24,932.32,2870.0,-770.0,19057.5
51.73,367.71,930.86,2082.5,-3097.5,18322.5
55.14,368.81,929.64,1715.0,-3465.0,18182.5
59.29,370.15,928.79,2275.0,-2222.5,18270.0
64.17,371.61,927.81,2240.0,-1837.5,17430.0
69.05,372.71,927.2,2642.5,-2047.5,16660.0
74.05,373.81,926.83,3255.0,-1522.5,16135.0
79.3,375.39,926.83,1575.0,1487.5,14857.5
84.3,376.74,926.83,-140.0,4620.0,12967.5
88.82,377.71,926.59,-420.0,3920.0,12110.0
92.96,378.32,926.59,1172.5,1260.0,11322.5
96.01,378.69,927.08,2835.0,-192.5,11217.5
97.6,378.93,927.44,3027.5,262.5,11060.0
99.31,379.54,926.83,2275.0,805.0,10815.0
100.77,379.91,925.61,1872.5,-1732.5,8260.0
100.28,379.3,924.76,1190.0,-1102.5,8732.5
99.19,378.44,924.64,2327.5,-1102.5,11217.5
98.33,377.83,924.39,3080.0,-350.0,13755.0
97.84,377.71,923.78,3150.0,-1137.5,14087.5
97.36,377.22,923.54,3010.0,-2117.5,14612.5
96.75,376.49,924.03,3412.5,-2362.5,15505.0
96.5,375.52,925.0,3657.5,-525.0,17482.5
96.75,375.03,926.1,3552.5,1890.0,18812.5
97.23,374.66,926.59,4060.0,2397.5,19512.5
98.21,374.54,926.22,4550.0,945.0,20580.0
99.8,374.78,925.98,4480.0,735.0,20720.0
101.38,375.03,925.61,4760.0,560.0,20580.0
103.58,375.27,924.76,5320.0,-1032.5,21157.5
106.63,375.64,924.03,4795.0,-1050.0,21420.0
110.65,376.49,923.78,4917.5,-297.5,21280.0
115.29,377.71,923.17,5180.0,1015.0,20790.0
120.54,379.3,921.95,4077.5,2152.5,19967.5
125.66,380.76,920.73,3342.5,1872.5,18340.0
131.03,382.23,919.39,3867.5,472.5,16537.5
136.88,383.81,917.93,3762.5,35.0,14927.5
143.11,385.76,915.98,2905.0,-507.5,13002.5
149.33,387.72,914.39,2135.0,-1067.5,10430.0
155.55,389.55,913.29,1890.0,-1242.5,8242.5
161.77,391.38,912.07,1540.0,-945.0,6615.0
168.6,393.45,910.85,665.0,-227.5,4095.0
175.56,395.89,909.63,-385.0,52.5,612.5
182.02,398.21,908.05,-822.5,-787.5,-3080.0
188.12,400.16,906.46,-1452.5,-1732.5,-6440.0
193.61,401.87,905.0,-2310.0,-1855.0,-9415.0
198.37,403.33,903.65,-3430.0,-1960.0,-12582.5
202.03,404.31,902.68,-4707.5,-2677.5,-15522.5
204.23,404.55,902.43,-5250.0,-3920.0,-17972.5
205.57,404.43,902.8,-5197.5,-4252.5,-19600.0
205.81,404.06,903.78,-4445.0,-4130.0,-20615.0
205.45,403.33,904.63,-3675.0,-3465.0,-21245.0
204.59,402.84,904.75,-3937.5,-3220.0,-22435.0
203.13,402.36,904.26,-4550.0,-4112.5,-23852.5
200.93,401.5,903.78,-5460.0,-4147.5,-24482.5
198.37,400.4,903.65,-6527.5,-3867.5,-24867.5
195.2,399.18,903.53,-6930.0,-4305.0,-25147.5
191.91,397.48,903.41,-6545.0,-5635.0,-25165.0
188.86,395.52,903.78,-7087.5,-5792.5,-24325.0
186.17,393.82,905.36,-8592.5,-4130.0,-23450.0
183.85,392.47,908.17,-8330.0,-2450.0,-23817.5
181.41,391.13,911.46,-6422.5,-2047.5,-24290.0
178.85,389.67,914.27,-5302.5,-1697.5,-23852.5
176.66,388.33,916.95,-4637.5,-140.0,-23625.0
174.22,387.23,918.66,-4095.0,892.5,-23852.5
171.17,386.01,919.64,-3482.5,70.0,-23922.5
167.87,384.79,919.76,-2660.0,-1365.0,-23870.0
164.21,383.45,919.64,-2957.5,-875.0,-23362.5
160.8,382.35,919.39,-3867.5,612.5,-22767.5
156.89,381.25,918.78,-4340.0,1067.5,-22365.0
152.87,380.15,918.05,-4795.0,140.0,-21630.0
148.96,379.05,917.93,-5092.5,-945.0,-20912.5
145.18,378.08,918.29,-4707.5,-1715.0,-20317.5
141.76,377.1,919.15,-4567.5,-2135.0,-20247.5
138.23,376.13,920.12,-4847.5,-2397.5,-20125.0
134.44,375.03,921.47,-4532.5,-2537.5,-19722.5
130.78,373.93,923.05,-4077.5,-1452.5,-18602.5
127.25,372.71,924.52,-4112.5,175.0,-17797.5
123.71,371.61,925.74,-3675.0,420.0,-17167.5
120.17,370.51,926.71,-2520.0,-70.0,-16397.5
116.75,369.42,927.2,-2292.5,-52.5,-15610.0
113.22,368.56,927.44,-3150.0,420.0,-14752.5
109.31,367.46,927.69,-3202.5,-122.5,-14052.5
104.92,366.12,927.93,-2695.0,-910.0,-13055.0
100.16,364.54,928.66,-2257.5,-1155.0,-11392.5
95.4,362.71,929.64,-1925.0,-665.0,-9170.0
90.77,361.12,931.1,-1085.0,-717.5,-7210.0
86.25,359.78,932.32,-175.0,-542.5,-5460.0
81.74,358.8,933.67,560.0,-157.5,-3745.0
77.35,357.46,935.01,560.0,1312.5,-1575.0
